"WorkerId","cond","trialnum","correct","sex","age","lang","rt","itemnum","trialtype"
"A2179VLITZ8QHP",2,1,"Y","""M""","""35""","""English""",2345,"2vs2","control_single"
"A1F63RK1PMJS5Y",1,1,"Y","""M""","""35""","""English""",1066,"2vs2","control_single"
"A2OYTHYZI938A7",1,1,"Y","""F""","""35""","""English""",1146,"2vs2","control_single"
"A2ZH5LDUY5UFD4",1,1,"Y","""M""","""45""","""English""",1919,"2vs2","control_single"
"A2RXJXDJ5IWHCF",2,1,"Y","""F""","""35""","""English""",1439,"2vs2","control_single"
"A1Y8MOE9J7CMPQ",1,1,"Y","""M""","""45""","""English""",1025,"2vs2","control_single"
"A3LZG0E2BOVFI0",2,1,"Y","""F""","""55""","""English""",1813,"2vs2","control_single"
"A10K8ZSAU26T49",2,1,"Y","""F""","""55""","""English""",2410,"2vs2","control_single"
"AIUKV0KVALMY6",1,1,"Y","""F""","""35""","""english""",1599,"2vs2","control_single"
"A3MBIX6DHJS68K",2,1,"Y","""F""","""35""","""English""",1643,"2vs2","control_single"
"A3CD3C99T8S6ON",2,1,"Y","""M""","""25""","""English""",2112,"2vs2","control_single"
"A3SW1BXR31CZY0",1,1,"Y","""M""","""35""","""English""",1250,"2vs2","control_single"
"AK467M5VTG7N4",1,1,"Y","""M""","""25""","""English""",2084,"2vs2","control_single"
"A24MK3QPZ1V1L8",1,1,"Y","""M""","""35""","""english""",1414,"2vs2","control_single"
"ADKKDK6P4MS1Z",2,1,"Y","""M""","""35""","""english""",1607,"2vs2","control_single"
"A3H369LHNNJ1XR",1,1,"Y","""M""","""25""","""English""",969,"2vs2","control_single"
"AKLG79EPGKTDP",1,1,"Y","""F""","""25""","""English""",807,"2vs2","control_single"
"A1GSIR59HGF3SZ",1,1,"Y","""F""","""35""","""English""",1124,"2vs2","control_single"
"A1HBIE5LRTQK1L",1,1,"Y","""M""","""55""","""English""",1213,"2vs2","control_single"
"ARI4DPDWL5SZY",2,1,"N","""M""","""35""","""English""",294,"2vs2","control_single"
"A6IFXOBCV436G",1,1,"Y","""M""","""35""","""english""",1579,"2vs2","control_single"
"A2FD57QQWT1J2N",2,1,"Y","""M""","""35""","""english""",1996,"2vs2","control_single"
"A1VSHM4NLZ705D",1,1,"Y","""M""","""35""","""English""",1084,"2vs2","control_single"
"A38R7SIVV118KT",2,1,"Y","""M""","""65""","""english""",1840,"2vs2","control_single"
"A1QVNF19XSRSD7",1,1,"Y","""M""","""35""","""English""",1080,"2vs2","control_single"
"A2T9WRHFRIVAFY",2,1,"Y","""F""","""35""","""English""",2826,"2vs2","control_single"
"A1H11P4QSM08Y1",2,1,"Y","""M""","""35""","""english""",2815,"2vs2","control_single"
"A3MQS8KPUMZB9W",1,1,"Y","""F""","""45""","""English""",1156,"2vs2","control_single"
"A1A2X0T1XE8K89",1,1,"Y","""M""","""25""","""english""",1280,"2vs2","control_single"
"A3P74FP62XNVYI",1,1,"Y","""M""","""65""","""English""",1493,"2vs2","control_single"
"A302M81U0HM7RJ",1,1,"Y","""M""","""35""","""english""",857,"2vs2","control_single"
"A27BKFN6UB1LDP",2,1,"Y","""F""","""35""","""English""",1976,"2vs2","control_single"
"A2G333PKCQQIA0",2,1,"Y","""F""","""35""","""english""",2643,"2vs2","control_single"
"ALIAR9NKPM4YU",2,1,"Y","""F""","""66""","""English""",2182,"2vs2","control_single"
"A7XL1V3G7C2VV",2,1,"Y","""M""","""25""","""English""",1446,"2vs2","control_single"
"A2UIGDOLX5RV95",1,1,"Y","""F""","""25""","""English""",1310,"2vs2","control_single"
"AYCHPTQRYDT7G",1,1,"Y","""F""","""45""","""English""",1454,"2vs2","control_single"
"A1H72BVZEDUFZ7",1,1,"Y","""F""","""25""","""English""",1877,"2vs2","control_single"
"A3K7UC7LUKV0ZV",1,1,"Y","""M""","""35""","""English""",1254,"2vs2","control_single"
"A1BDZFVHI4LH44",2,1,"Y","""M""","""25""","""English""",786,"2vs2","control_single"
"A207IHY6GERCFO",2,1,"Y","""M""","""35""","""English""",1340,"2vs2","control_single"
"A3RIBFIB7C8D20",1,1,"Y","""F""","""25""","""english""",1497,"2vs2","control_single"
"A27O2IILV3S5YS",2,1,"Y","""F""","""35""","""English""",1910,"2vs2","control_single"
"A3HNEYFOIJWPH1",2,1,"Y","""M""","""35""","""English""",1768,"2vs2","control_single"
"AELOYBHVZFDW9",2,1,"Y","""M""","""55""","""english""",1148,"2vs2","control_single"
"A2UF2FRGVW4T89",1,1,"Y","""M""","""45""","""English""",832,"2vs2","control_single"
"A1XOXGWBAN6HEJ",1,1,"Y","""M""","""35""","""english""",1782,"2vs2","control_single"
"A7RAVFS10BUZ1",2,1,"Y","""M""","""55""","""English""",1994,"2vs2","control_single"
"A2179VLITZ8QHP",2,2,"Y","""M""","""35""","""English""",2284,"2vs1","inference"
"A1F63RK1PMJS5Y",1,2,"Y","""M""","""35""","""English""",4430,"3vs1","inference"
"A2OYTHYZI938A7",1,2,"Y","""F""","""35""","""English""",2226,"3vs1","inference"
"A2ZH5LDUY5UFD4",1,2,"Y","""M""","""45""","""English""",1870,"3vs1","inference"
"A2RXJXDJ5IWHCF",2,2,"Y","""F""","""35""","""English""",1415,"2vs1","inference"
"A1Y8MOE9J7CMPQ",1,2,"Y","""M""","""45""","""English""",1984,"3vs1","inference"
"A3LZG0E2BOVFI0",2,2,"Y","""F""","""55""","""English""",1183,"2vs1","inference"
"A10K8ZSAU26T49",2,2,"Y","""F""","""55""","""English""",2314,"2vs1","inference"
"AIUKV0KVALMY6",1,2,"Y","""F""","""35""","""english""",816,"3vs1","inference"
"A3MBIX6DHJS68K",2,2,"Y","""F""","""35""","""English""",1671,"2vs1","inference"
"A3CD3C99T8S6ON",2,2,"Y","""M""","""25""","""English""",1048,"2vs1","inference"
"A3SW1BXR31CZY0",1,2,"Y","""M""","""35""","""English""",1634,"3vs1","inference"
"AK467M5VTG7N4",1,2,"Y","""M""","""25""","""English""",2166,"3vs1","inference"
"A24MK3QPZ1V1L8",1,2,"Y","""M""","""35""","""english""",4871,"3vs1","inference"
"ADKKDK6P4MS1Z",2,2,"Y","""M""","""35""","""english""",1982,"2vs1","inference"
"A3H369LHNNJ1XR",1,2,"Y","""M""","""25""","""English""",1185,"3vs1","inference"
"AKLG79EPGKTDP",1,2,"Y","""F""","""25""","""English""",1168,"3vs1","inference"
"A1GSIR59HGF3SZ",1,2,"Y","""F""","""35""","""English""",1295,"3vs1","inference"
"A1HBIE5LRTQK1L",1,2,"N","""M""","""55""","""English""",802,"3vs1","inference"
"ARI4DPDWL5SZY",2,2,"Y","""M""","""35""","""English""",880,"2vs1","inference"
"A6IFXOBCV436G",1,2,"Y","""M""","""35""","""english""",4593,"3vs1","inference"
"A2FD57QQWT1J2N",2,2,"Y","""M""","""35""","""english""",2197,"2vs1","inference"
"A1VSHM4NLZ705D",1,2,"Y","""M""","""35""","""English""",2399,"3vs1","inference"
"A38R7SIVV118KT",2,2,"Y","""M""","""65""","""english""",2560,"2vs1","inference"
"A1QVNF19XSRSD7",1,2,"Y","""M""","""35""","""English""",2493,"3vs1","inference"
"A2T9WRHFRIVAFY",2,2,"Y","""F""","""35""","""English""",2236,"2vs1","inference"
"A1H11P4QSM08Y1",2,2,"Y","""M""","""35""","""english""",3020,"2vs1","inference"
"A3MQS8KPUMZB9W",1,2,"Y","""F""","""45""","""English""",2027,"3vs1","inference"
"A1A2X0T1XE8K89",1,2,"Y","""M""","""25""","""english""",2027,"3vs1","inference"
"A3P74FP62XNVYI",1,2,"Y","""M""","""65""","""English""",1992,"3vs1","inference"
"A302M81U0HM7RJ",1,2,"Y","""M""","""35""","""english""",2023,"3vs1","inference"
"A27BKFN6UB1LDP",2,2,"N","""F""","""35""","""English""",1853,"2vs1","inference"
"A2G333PKCQQIA0",2,2,"Y","""F""","""35""","""english""",1924,"2vs1","inference"
"ALIAR9NKPM4YU",2,2,"Y","""F""","""66""","""English""",4244,"2vs1","inference"
"A7XL1V3G7C2VV",2,2,"Y","""M""","""25""","""English""",1117,"2vs1","inference"
"A2UIGDOLX5RV95",1,2,"Y","""F""","""25""","""English""",1947,"3vs1","inference"
"AYCHPTQRYDT7G",1,2,"Y","""F""","""45""","""English""",1154,"3vs1","inference"
"A1H72BVZEDUFZ7",1,2,"Y","""F""","""25""","""English""",6490,"3vs1","inference"
"A3K7UC7LUKV0ZV",1,2,"Y","""M""","""35""","""English""",1181,"3vs1","inference"
"A1BDZFVHI4LH44",2,2,"Y","""M""","""25""","""English""",978,"2vs1","inference"
"A207IHY6GERCFO",2,2,"Y","""M""","""35""","""English""",1200,"2vs1","inference"
"A3RIBFIB7C8D20",1,2,"Y","""F""","""25""","""english""",1917,"3vs1","inference"
"A27O2IILV3S5YS",2,2,"Y","""F""","""35""","""English""",1251,"2vs1","inference"
"A3HNEYFOIJWPH1",2,2,"Y","""M""","""35""","""English""",1430,"2vs1","inference"
"AELOYBHVZFDW9",2,2,"Y","""M""","""55""","""english""",1779,"2vs1","inference"
"A2UF2FRGVW4T89",1,2,"Y","""M""","""45""","""English""",1362,"3vs1","inference"
"A1XOXGWBAN6HEJ",1,2,"Y","""M""","""35""","""english""",1739,"3vs1","inference"
"A7RAVFS10BUZ1",2,2,"Y","""M""","""55""","""English""",1975,"2vs1","inference"
"A2179VLITZ8QHP",2,3,"Y","""M""","""35""","""English""",1034,"3vs1","control_double"
"A1F63RK1PMJS5Y",1,3,"Y","""M""","""35""","""English""",1274,"3vs1","control_double"
"A2OYTHYZI938A7",1,3,"Y","""F""","""35""","""English""",1256,"3vs1","control_double"
"A2ZH5LDUY5UFD4",1,3,"Y","""M""","""45""","""English""",1573,"3vs1","control_double"
"A2RXJXDJ5IWHCF",2,3,"Y","""F""","""35""","""English""",752,"3vs1","control_double"
"A1Y8MOE9J7CMPQ",1,3,"Y","""M""","""45""","""English""",953,"3vs1","control_double"
"A3LZG0E2BOVFI0",2,3,"Y","""F""","""55""","""English""",1335,"3vs1","control_double"
"A10K8ZSAU26T49",2,3,"Y","""F""","""55""","""English""",1549,"3vs1","control_double"
"AIUKV0KVALMY6",1,3,"Y","""F""","""35""","""english""",957,"3vs1","control_double"
"A3MBIX6DHJS68K",2,3,"Y","""F""","""35""","""English""",867,"3vs1","control_double"
"A3CD3C99T8S6ON",2,3,"Y","""M""","""25""","""English""",1184,"3vs1","control_double"
"A3SW1BXR31CZY0",1,3,"Y","""M""","""35""","""English""",1017,"3vs1","control_double"
"AK467M5VTG7N4",1,3,"Y","""M""","""25""","""English""",2259,"3vs1","control_double"
"A24MK3QPZ1V1L8",1,3,"Y","""M""","""35""","""english""",1174,"3vs1","control_double"
"ADKKDK6P4MS1Z",2,3,"Y","""M""","""35""","""english""",2007,"3vs1","control_double"
"A3H369LHNNJ1XR",1,3,"Y","""M""","""25""","""English""",1209,"3vs1","control_double"
"AKLG79EPGKTDP",1,3,"Y","""F""","""25""","""English""",714,"3vs1","control_double"
"A1GSIR59HGF3SZ",1,3,"Y","""F""","""35""","""English""",2278,"3vs1","control_double"
"A1HBIE5LRTQK1L",1,3,"Y","""M""","""55""","""English""",1428,"3vs1","control_double"
"ARI4DPDWL5SZY",2,3,"Y","""M""","""35""","""English""",477,"3vs1","control_double"
"A6IFXOBCV436G",1,3,"Y","""M""","""35""","""english""",1674,"3vs1","control_double"
"A2FD57QQWT1J2N",2,3,"Y","""M""","""35""","""english""",1161,"3vs1","control_double"
"A1VSHM4NLZ705D",1,3,"Y","""M""","""35""","""English""",1624,"3vs1","control_double"
"A38R7SIVV118KT",2,3,"Y","""M""","""65""","""english""",1161,"3vs1","control_double"
"A1QVNF19XSRSD7",1,3,"Y","""M""","""35""","""English""",1477,"3vs1","control_double"
"A2T9WRHFRIVAFY",2,3,"Y","""F""","""35""","""English""",2156,"3vs1","control_double"
"A1H11P4QSM08Y1",2,3,"Y","""M""","""35""","""english""",1658,"3vs1","control_double"
"A3MQS8KPUMZB9W",1,3,"Y","""F""","""45""","""English""",1801,"3vs1","control_double"
"A1A2X0T1XE8K89",1,3,"Y","""M""","""25""","""english""",866,"3vs1","control_double"
"A3P74FP62XNVYI",1,3,"Y","""M""","""65""","""English""",1577,"3vs1","control_double"
"A302M81U0HM7RJ",1,3,"Y","""M""","""35""","""english""",1273,"3vs1","control_double"
"A27BKFN6UB1LDP",2,3,"Y","""F""","""35""","""English""",1272,"3vs1","control_double"
"A2G333PKCQQIA0",2,3,"Y","""F""","""35""","""english""",2695,"3vs1","control_double"
"ALIAR9NKPM4YU",2,3,"Y","""F""","""66""","""English""",1590,"3vs1","control_double"
"A7XL1V3G7C2VV",2,3,"Y","""M""","""25""","""English""",1220,"3vs1","control_double"
"A2UIGDOLX5RV95",1,3,"Y","""F""","""25""","""English""",1090,"3vs1","control_double"
"AYCHPTQRYDT7G",1,3,"Y","""F""","""45""","""English""",1253,"3vs1","control_double"
"A1H72BVZEDUFZ7",1,3,"Y","""F""","""25""","""English""",2386,"3vs1","control_double"
"A3K7UC7LUKV0ZV",1,3,"Y","""M""","""35""","""English""",1170,"3vs1","control_double"
"A1BDZFVHI4LH44",2,3,"Y","""M""","""25""","""English""",937,"3vs1","control_double"
"A207IHY6GERCFO",2,3,"Y","""M""","""35""","""English""",1139,"3vs1","control_double"
"A3RIBFIB7C8D20",1,3,"Y","""F""","""25""","""english""",2367,"3vs1","control_double"
"A27O2IILV3S5YS",2,3,"Y","""F""","""35""","""English""",1207,"3vs1","control_double"
"A3HNEYFOIJWPH1",2,3,"Y","""M""","""35""","""English""",902,"3vs1","control_double"
"AELOYBHVZFDW9",2,3,"Y","""M""","""55""","""english""",1194,"3vs1","control_double"
"A2UF2FRGVW4T89",1,3,"Y","""M""","""45""","""English""",1720,"3vs1","control_double"
"A1XOXGWBAN6HEJ",1,3,"Y","""M""","""35""","""english""",714,"3vs1","control_double"
"A7RAVFS10BUZ1",2,3,"Y","""M""","""55""","""English""",1509,"3vs1","control_double"
"A2179VLITZ8QHP",2,4,"Y","""M""","""35""","""English""",1990,"2vs2","control_single"
"A1F63RK1PMJS5Y",1,4,"Y","""M""","""35""","""English""",777,"1vs1","control_single"
"A2OYTHYZI938A7",1,4,"Y","""F""","""35""","""English""",747,"1vs1","control_single"
"A2ZH5LDUY5UFD4",1,4,"Y","""M""","""45""","""English""",1464,"1vs1","control_single"
"A2RXJXDJ5IWHCF",2,4,"Y","""F""","""35""","""English""",814,"2vs2","control_single"
"A1Y8MOE9J7CMPQ",1,4,"Y","""M""","""45""","""English""",967,"1vs1","control_single"
"A3LZG0E2BOVFI0",2,4,"Y","""F""","""55""","""English""",1443,"2vs2","control_single"
"A10K8ZSAU26T49",2,4,"Y","""F""","""55""","""English""",2376,"2vs2","control_single"
"AIUKV0KVALMY6",1,4,"Y","""F""","""35""","""english""",1268,"1vs1","control_single"
"A3MBIX6DHJS68K",2,4,"Y","""F""","""35""","""English""",902,"2vs2","control_single"
"A3CD3C99T8S6ON",2,4,"Y","""M""","""25""","""English""",1088,"2vs2","control_single"
"A3SW1BXR31CZY0",1,4,"Y","""M""","""35""","""English""",1024,"1vs1","control_single"
"AK467M5VTG7N4",1,4,"Y","""M""","""25""","""English""",1122,"1vs1","control_single"
"A24MK3QPZ1V1L8",1,4,"Y","""M""","""35""","""english""",1382,"1vs1","control_single"
"ADKKDK6P4MS1Z",2,4,"Y","""M""","""35""","""english""",1608,"2vs2","control_single"
"A3H369LHNNJ1XR",1,4,"Y","""M""","""25""","""English""",825,"1vs1","control_single"
"AKLG79EPGKTDP",1,4,"Y","""F""","""25""","""English""",517,"1vs1","control_single"
"A1GSIR59HGF3SZ",1,4,"Y","""F""","""35""","""English""",920,"1vs1","control_single"
"A1HBIE5LRTQK1L",1,4,"Y","""M""","""55""","""English""",818,"1vs1","control_single"
"ARI4DPDWL5SZY",2,4,"Y","""M""","""35""","""English""",587,"2vs2","control_single"
"A6IFXOBCV436G",1,4,"Y","""M""","""35""","""english""",1986,"1vs1","control_single"
"A2FD57QQWT1J2N",2,4,"Y","""M""","""35""","""english""",2182,"2vs2","control_single"
"A1VSHM4NLZ705D",1,4,"Y","""M""","""35""","""English""",760,"1vs1","control_single"
"A38R7SIVV118KT",2,4,"Y","""M""","""65""","""english""",1297,"2vs2","control_single"
"A1QVNF19XSRSD7",1,4,"Y","""M""","""35""","""English""",887,"1vs1","control_single"
"A2T9WRHFRIVAFY",2,4,"Y","""F""","""35""","""English""",1860,"2vs2","control_single"
"A1H11P4QSM08Y1",2,4,"Y","""M""","""35""","""english""",1176,"2vs2","control_single"
"A3MQS8KPUMZB9W",1,4,"Y","""F""","""45""","""English""",1109,"1vs1","control_single"
"A1A2X0T1XE8K89",1,4,"Y","""M""","""25""","""english""",590,"1vs1","control_single"
"A3P74FP62XNVYI",1,4,"Y","""M""","""65""","""English""",961,"1vs1","control_single"
"A302M81U0HM7RJ",1,4,"Y","""M""","""35""","""english""",681,"1vs1","control_single"
"A27BKFN6UB1LDP",2,4,"Y","""F""","""35""","""English""",1577,"2vs2","control_single"
"A2G333PKCQQIA0",2,4,"Y","""F""","""35""","""english""",1537,"2vs2","control_single"
"ALIAR9NKPM4YU",2,4,"Y","""F""","""66""","""English""",1513,"2vs2","control_single"
"A7XL1V3G7C2VV",2,4,"Y","""M""","""25""","""English""",888,"2vs2","control_single"
"A2UIGDOLX5RV95",1,4,"Y","""F""","""25""","""English""",897,"1vs1","control_single"
"AYCHPTQRYDT7G",1,4,"Y","""F""","""45""","""English""",970,"1vs1","control_single"
"A1H72BVZEDUFZ7",1,4,"Y","""F""","""25""","""English""",1576,"1vs1","control_single"
"A3K7UC7LUKV0ZV",1,4,"Y","""M""","""35""","""English""",964,"1vs1","control_single"
"A1BDZFVHI4LH44",2,4,"Y","""M""","""25""","""English""",539,"2vs2","control_single"
"A207IHY6GERCFO",2,4,"Y","""M""","""35""","""English""",1100,"2vs2","control_single"
"A3RIBFIB7C8D20",1,4,"Y","""F""","""25""","""english""",1255,"1vs1","control_single"
"A27O2IILV3S5YS",2,4,"Y","""F""","""35""","""English""",535,"2vs2","control_single"
"A3HNEYFOIJWPH1",2,4,"Y","""M""","""35""","""English""",1171,"2vs2","control_single"
"AELOYBHVZFDW9",2,4,"Y","""M""","""55""","""english""",740,"2vs2","control_single"
"A2UF2FRGVW4T89",1,4,"Y","""M""","""45""","""English""",1510,"1vs1","control_single"
"A1XOXGWBAN6HEJ",1,4,"Y","""M""","""35""","""english""",930,"1vs1","control_single"
"A7RAVFS10BUZ1",2,4,"Y","""M""","""55""","""English""",1866,"2vs2","control_single"
"A2179VLITZ8QHP",2,5,"Y","""M""","""35""","""English""",1431,"2vs1","inference"
"A1F63RK1PMJS5Y",1,5,"Y","""M""","""35""","""English""",2602,"3vs1","inference"
"A2OYTHYZI938A7",1,5,"Y","""F""","""35""","""English""",1139,"3vs1","inference"
"A2ZH5LDUY5UFD4",1,5,"Y","""M""","""45""","""English""",1225,"3vs1","inference"
"A2RXJXDJ5IWHCF",2,5,"Y","""F""","""35""","""English""",1194,"2vs1","inference"
"A1Y8MOE9J7CMPQ",1,5,"Y","""M""","""45""","""English""",1045,"3vs1","inference"
"A3LZG0E2BOVFI0",2,5,"Y","""F""","""55""","""English""",1464,"2vs1","inference"
"A10K8ZSAU26T49",2,5,"Y","""F""","""55""","""English""",3471,"2vs1","inference"
"AIUKV0KVALMY6",1,5,"Y","""F""","""35""","""english""",2112,"3vs1","inference"
"A3MBIX6DHJS68K",2,5,"N","""F""","""35""","""English""",814,"2vs1","inference"
"A3CD3C99T8S6ON",2,5,"Y","""M""","""25""","""English""",1169,"2vs1","inference"
"A3SW1BXR31CZY0",1,5,"Y","""M""","""35""","""English""",1056,"3vs1","inference"
"AK467M5VTG7N4",1,5,"Y","""M""","""25""","""English""",1829,"3vs1","inference"
"A24MK3QPZ1V1L8",1,5,"Y","""M""","""35""","""english""",2895,"3vs1","inference"
"ADKKDK6P4MS1Z",2,5,"Y","""M""","""35""","""english""",2473,"2vs1","inference"
"A3H369LHNNJ1XR",1,5,"Y","""M""","""25""","""English""",1080,"3vs1","inference"
"AKLG79EPGKTDP",1,5,"Y","""F""","""25""","""English""",546,"3vs1","inference"
"A1GSIR59HGF3SZ",1,5,"Y","""F""","""35""","""English""",754,"3vs1","inference"
"A1HBIE5LRTQK1L",1,5,"Y","""M""","""55""","""English""",983,"3vs1","inference"
"ARI4DPDWL5SZY",2,5,"Y","""M""","""35""","""English""",983,"2vs1","inference"
"A6IFXOBCV436G",1,5,"Y","""M""","""35""","""english""",4377,"3vs1","inference"
"A2FD57QQWT1J2N",2,5,"Y","""M""","""35""","""english""",1435,"2vs1","inference"
"A1VSHM4NLZ705D",1,5,"Y","""M""","""35""","""English""",1014,"3vs1","inference"
"A38R7SIVV118KT",2,5,"N","""M""","""65""","""english""",1434,"2vs1","inference"
"A1QVNF19XSRSD7",1,5,"Y","""M""","""35""","""English""",1270,"3vs1","inference"
"A2T9WRHFRIVAFY",2,5,"Y","""F""","""35""","""English""",1667,"2vs1","inference"
"A1H11P4QSM08Y1",2,5,"Y","""M""","""35""","""english""",2063,"2vs1","inference"
"A3MQS8KPUMZB9W",1,5,"Y","""F""","""45""","""English""",3691,"3vs1","inference"
"A1A2X0T1XE8K89",1,5,"Y","""M""","""25""","""english""",1120,"3vs1","inference"
"A3P74FP62XNVYI",1,5,"N","""M""","""65""","""English""",1424,"3vs1","inference"
"A302M81U0HM7RJ",1,5,"Y","""M""","""35""","""english""",1177,"3vs1","inference"
"A27BKFN6UB1LDP",2,5,"Y","""F""","""35""","""English""",3476,"2vs1","inference"
"A2G333PKCQQIA0",2,5,"Y","""F""","""35""","""english""",1738,"2vs1","inference"
"ALIAR9NKPM4YU",2,5,"Y","""F""","""66""","""English""",1710,"2vs1","inference"
"A7XL1V3G7C2VV",2,5,"Y","""M""","""25""","""English""",4521,"2vs1","inference"
"A2UIGDOLX5RV95",1,5,"Y","""F""","""25""","""English""",1480,"3vs1","inference"
"AYCHPTQRYDT7G",1,5,"Y","""F""","""45""","""English""",1390,"3vs1","inference"
"A1H72BVZEDUFZ7",1,5,"Y","""F""","""25""","""English""",2806,"3vs1","inference"
"A3K7UC7LUKV0ZV",1,5,"Y","""M""","""35""","""English""",630,"3vs1","inference"
"A1BDZFVHI4LH44",2,5,"Y","""M""","""25""","""English""",971,"2vs1","inference"
"A207IHY6GERCFO",2,5,"Y","""M""","""35""","""English""",1750,"2vs1","inference"
"A3RIBFIB7C8D20",1,5,"Y","""F""","""25""","""english""",1734,"3vs1","inference"
"A27O2IILV3S5YS",2,5,"Y","""F""","""35""","""English""",1765,"2vs1","inference"
"A3HNEYFOIJWPH1",2,5,"Y","""M""","""35""","""English""",795,"2vs1","inference"
"AELOYBHVZFDW9",2,5,"Y","""M""","""55""","""english""",1144,"2vs1","inference"
"A2UF2FRGVW4T89",1,5,"Y","""M""","""45""","""English""",939,"3vs1","inference"
"A1XOXGWBAN6HEJ",1,5,"Y","""M""","""35""","""english""",2539,"3vs1","inference"
"A7RAVFS10BUZ1",2,5,"N","""M""","""55""","""English""",2970,"2vs1","inference"
"A2179VLITZ8QHP",2,6,"Y","""M""","""35""","""English""",1834,"2vs2","control_single"
"A1F63RK1PMJS5Y",1,6,"Y","""M""","""35""","""English""",810,"1vs1","control_single"
"A2OYTHYZI938A7",1,6,"Y","""F""","""35""","""English""",867,"1vs1","control_single"
"A2ZH5LDUY5UFD4",1,6,"Y","""M""","""45""","""English""",691,"1vs1","control_single"
"A2RXJXDJ5IWHCF",2,6,"Y","""F""","""35""","""English""",1126,"2vs2","control_single"
"A1Y8MOE9J7CMPQ",1,6,"Y","""M""","""45""","""English""",937,"1vs1","control_single"
"A3LZG0E2BOVFI0",2,6,"Y","""F""","""55""","""English""",1675,"2vs2","control_single"
"A10K8ZSAU26T49",2,6,"Y","""F""","""55""","""English""",2533,"2vs2","control_single"
"AIUKV0KVALMY6",1,6,"Y","""F""","""35""","""english""",738,"1vs1","control_single"
"A3MBIX6DHJS68K",2,6,"Y","""F""","""35""","""English""",1827,"2vs2","control_single"
"A3CD3C99T8S6ON",2,6,"Y","""M""","""25""","""English""",1313,"2vs2","control_single"
"A3SW1BXR31CZY0",1,6,"Y","""M""","""35""","""English""",928,"1vs1","control_single"
"AK467M5VTG7N4",1,6,"Y","""M""","""25""","""English""",1229,"1vs1","control_single"
"A24MK3QPZ1V1L8",1,6,"Y","""M""","""35""","""english""",687,"1vs1","control_single"
"ADKKDK6P4MS1Z",2,6,"Y","""M""","""35""","""english""",2204,"2vs2","control_single"
"A3H369LHNNJ1XR",1,6,"Y","""M""","""25""","""English""",834,"1vs1","control_single"
"AKLG79EPGKTDP",1,6,"Y","""F""","""25""","""English""",432,"1vs1","control_single"
"A1GSIR59HGF3SZ",1,6,"Y","""F""","""35""","""English""",607,"1vs1","control_single"
"A1HBIE5LRTQK1L",1,6,"Y","""M""","""55""","""English""",832,"1vs1","control_single"
"ARI4DPDWL5SZY",2,6,"Y","""M""","""35""","""English""",500,"2vs2","control_single"
"A6IFXOBCV436G",1,6,"Y","""M""","""35""","""english""",896,"1vs1","control_single"
"A2FD57QQWT1J2N",2,6,"Y","""M""","""35""","""english""",784,"2vs2","control_single"
"A1VSHM4NLZ705D",1,6,"Y","""M""","""35""","""English""",639,"1vs1","control_single"
"A38R7SIVV118KT",2,6,"Y","""M""","""65""","""english""",2129,"2vs2","control_single"
"A1QVNF19XSRSD7",1,6,"Y","""M""","""35""","""English""",825,"1vs1","control_single"
"A2T9WRHFRIVAFY",2,6,"Y","""F""","""35""","""English""",984,"2vs2","control_single"
"A1H11P4QSM08Y1",2,6,"Y","""M""","""35""","""english""",1283,"2vs2","control_single"
"A3MQS8KPUMZB9W",1,6,"Y","""F""","""45""","""English""",1197,"1vs1","control_single"
"A1A2X0T1XE8K89",1,6,"Y","""M""","""25""","""english""",958,"1vs1","control_single"
"A3P74FP62XNVYI",1,6,"Y","""M""","""65""","""English""",1313,"1vs1","control_single"
"A302M81U0HM7RJ",1,6,"Y","""M""","""35""","""english""",521,"1vs1","control_single"
"A27BKFN6UB1LDP",2,6,"Y","""F""","""35""","""English""",2284,"2vs2","control_single"
"A2G333PKCQQIA0",2,6,"Y","""F""","""35""","""english""",2116,"2vs2","control_single"
"ALIAR9NKPM4YU",2,6,"Y","""F""","""66""","""English""",1160,"2vs2","control_single"
"A7XL1V3G7C2VV",2,6,"Y","""M""","""25""","""English""",1429,"2vs2","control_single"
"A2UIGDOLX5RV95",1,6,"Y","""F""","""25""","""English""",600,"1vs1","control_single"
"AYCHPTQRYDT7G",1,6,"Y","""F""","""45""","""English""",886,"1vs1","control_single"
"A1H72BVZEDUFZ7",1,6,"Y","""F""","""25""","""English""",1297,"1vs1","control_single"
"A3K7UC7LUKV0ZV",1,6,"Y","""M""","""35""","""English""",814,"1vs1","control_single"
"A1BDZFVHI4LH44",2,6,"Y","""M""","""25""","""English""",657,"2vs2","control_single"
"A207IHY6GERCFO",2,6,"N","""M""","""35""","""English""",1140,"2vs2","control_single"
"A3RIBFIB7C8D20",1,6,"Y","""F""","""25""","""english""",1563,"1vs1","control_single"
"A27O2IILV3S5YS",2,6,"Y","""F""","""35""","""English""",1158,"2vs2","control_single"
"A3HNEYFOIJWPH1",2,6,"Y","""M""","""35""","""English""",1187,"2vs2","control_single"
"AELOYBHVZFDW9",2,6,"Y","""M""","""55""","""english""",774,"2vs2","control_single"
"A2UF2FRGVW4T89",1,6,"Y","""M""","""45""","""English""",1168,"1vs1","control_single"
"A1XOXGWBAN6HEJ",1,6,"Y","""M""","""35""","""english""",684,"1vs1","control_single"
"A7RAVFS10BUZ1",2,6,"Y","""M""","""55""","""English""",1553,"2vs2","control_single"
"A2179VLITZ8QHP",2,7,"Y","""M""","""35""","""English""",1225,"2vs2","control_single"
"A1F63RK1PMJS5Y",1,7,"Y","""M""","""35""","""English""",1890,"2vs2","control_single"
"A2OYTHYZI938A7",1,7,"Y","""F""","""35""","""English""",637,"2vs2","control_single"
"A2ZH5LDUY5UFD4",1,7,"Y","""M""","""45""","""English""",1490,"2vs2","control_single"
"A2RXJXDJ5IWHCF",2,7,"Y","""F""","""35""","""English""",905,"2vs2","control_single"
"A1Y8MOE9J7CMPQ",1,7,"Y","""M""","""45""","""English""",936,"2vs2","control_single"
"A3LZG0E2BOVFI0",2,7,"Y","""F""","""55""","""English""",1703,"2vs2","control_single"
"A10K8ZSAU26T49",2,7,"Y","""F""","""55""","""English""",1580,"2vs2","control_single"
"AIUKV0KVALMY6",1,7,"Y","""F""","""35""","""english""",1425,"2vs2","control_single"
"A3MBIX6DHJS68K",2,7,"Y","""F""","""35""","""English""",1915,"2vs2","control_single"
"A3CD3C99T8S6ON",2,7,"Y","""M""","""25""","""English""",1032,"2vs2","control_single"
"A3SW1BXR31CZY0",1,7,"Y","""M""","""35""","""English""",1162,"2vs2","control_single"
"AK467M5VTG7N4",1,7,"Y","""M""","""25""","""English""",1603,"2vs2","control_single"
"A24MK3QPZ1V1L8",1,7,"Y","""M""","""35""","""english""",1186,"2vs2","control_single"
"ADKKDK6P4MS1Z",2,7,"Y","""M""","""35""","""english""",1598,"2vs2","control_single"
"A3H369LHNNJ1XR",1,7,"Y","""M""","""25""","""English""",1113,"2vs2","control_single"
"AKLG79EPGKTDP",1,7,"Y","""F""","""25""","""English""",823,"2vs2","control_single"
"A1GSIR59HGF3SZ",1,7,"Y","""F""","""35""","""English""",1308,"2vs2","control_single"
"A1HBIE5LRTQK1L",1,7,"Y","""M""","""55""","""English""",1206,"2vs2","control_single"
"ARI4DPDWL5SZY",2,7,"Y","""M""","""35""","""English""",529,"2vs2","control_single"
"A6IFXOBCV436G",1,7,"Y","""M""","""35""","""english""",877,"2vs2","control_single"
"A2FD57QQWT1J2N",2,7,"Y","""M""","""35""","""english""",1007,"2vs2","control_single"
"A1VSHM4NLZ705D",1,7,"Y","""M""","""35""","""English""",1532,"2vs2","control_single"
"A38R7SIVV118KT",2,7,"Y","""M""","""65""","""english""",1249,"2vs2","control_single"
"A1QVNF19XSRSD7",1,7,"Y","""M""","""35""","""English""",1312,"2vs2","control_single"
"A2T9WRHFRIVAFY",2,7,"Y","""F""","""35""","""English""",1141,"2vs2","control_single"
"A1H11P4QSM08Y1",2,7,"Y","""M""","""35""","""english""",844,"2vs2","control_single"
"A3MQS8KPUMZB9W",1,7,"Y","""F""","""45""","""English""",1697,"2vs2","control_single"
"A1A2X0T1XE8K89",1,7,"Y","""M""","""25""","""english""",1370,"2vs2","control_single"
"A3P74FP62XNVYI",1,7,"Y","""M""","""65""","""English""",1048,"2vs2","control_single"
"A302M81U0HM7RJ",1,7,"Y","""M""","""35""","""english""",1095,"2vs2","control_single"
"A27BKFN6UB1LDP",2,7,"Y","""F""","""35""","""English""",1570,"2vs2","control_single"
"A2G333PKCQQIA0",2,7,"Y","""F""","""35""","""english""",1591,"2vs2","control_single"
"ALIAR9NKPM4YU",2,7,"Y","""F""","""66""","""English""",1321,"2vs2","control_single"
"A7XL1V3G7C2VV",2,7,"Y","""M""","""25""","""English""",859,"2vs2","control_single"
"A2UIGDOLX5RV95",1,7,"Y","""F""","""25""","""English""",984,"2vs2","control_single"
"AYCHPTQRYDT7G",1,7,"Y","""F""","""45""","""English""",1251,"2vs2","control_single"
"A1H72BVZEDUFZ7",1,7,"Y","""F""","""25""","""English""",2286,"2vs2","control_single"
"A3K7UC7LUKV0ZV",1,7,"Y","""M""","""35""","""English""",1115,"2vs2","control_single"
"A1BDZFVHI4LH44",2,7,"Y","""M""","""25""","""English""",748,"2vs2","control_single"
"A207IHY6GERCFO",2,7,"Y","""M""","""35""","""English""",913,"2vs2","control_single"
"A3RIBFIB7C8D20",1,7,"Y","""F""","""25""","""english""",2210,"2vs2","control_single"
"A27O2IILV3S5YS",2,7,"Y","""F""","""35""","""English""",760,"2vs2","control_single"
"A3HNEYFOIJWPH1",2,7,"Y","""M""","""35""","""English""",1167,"2vs2","control_single"
"AELOYBHVZFDW9",2,7,"Y","""M""","""55""","""english""",673,"2vs2","control_single"
"A2UF2FRGVW4T89",1,7,"Y","""M""","""45""","""English""",1776,"2vs2","control_single"
"A1XOXGWBAN6HEJ",1,7,"Y","""M""","""35""","""english""",2096,"2vs2","control_single"
"A7RAVFS10BUZ1",2,7,"Y","""M""","""55""","""English""",2935,"2vs2","control_single"
"A2179VLITZ8QHP",2,8,"Y","""M""","""35""","""English""",1576,"2vs1","control_double"
"A1F63RK1PMJS5Y",1,8,"Y","""M""","""35""","""English""",1491,"2vs1","control_double"
"A2OYTHYZI938A7",1,8,"Y","""F""","""35""","""English""",827,"2vs1","control_double"
"A2ZH5LDUY5UFD4",1,8,"Y","""M""","""45""","""English""",848,"2vs1","control_double"
"A2RXJXDJ5IWHCF",2,8,"Y","""F""","""35""","""English""",991,"2vs1","control_double"
"A1Y8MOE9J7CMPQ",1,8,"Y","""M""","""45""","""English""",937,"2vs1","control_double"
"A3LZG0E2BOVFI0",2,8,"Y","""F""","""55""","""English""",2423,"2vs1","control_double"
"A10K8ZSAU26T49",2,8,"Y","""F""","""55""","""English""",1968,"2vs1","control_double"
"AIUKV0KVALMY6",1,8,"Y","""F""","""35""","""english""",1064,"2vs1","control_double"
"A3MBIX6DHJS68K",2,8,"Y","""F""","""35""","""English""",1235,"2vs1","control_double"
"A3CD3C99T8S6ON",2,8,"Y","""M""","""25""","""English""",617,"2vs1","control_double"
"A3SW1BXR31CZY0",1,8,"Y","""M""","""35""","""English""",657,"2vs1","control_double"
"AK467M5VTG7N4",1,8,"Y","""M""","""25""","""English""",1305,"2vs1","control_double"
"A24MK3QPZ1V1L8",1,8,"Y","""M""","""35""","""english""",1927,"2vs1","control_double"
"ADKKDK6P4MS1Z",2,8,"Y","""M""","""35""","""english""",881,"2vs1","control_double"
"A3H369LHNNJ1XR",1,8,"Y","""M""","""25""","""English""",2041,"2vs1","control_double"
"AKLG79EPGKTDP",1,8,"Y","""F""","""25""","""English""",438,"2vs1","control_double"
"A1GSIR59HGF3SZ",1,8,"Y","""F""","""35""","""English""",1122,"2vs1","control_double"
"A1HBIE5LRTQK1L",1,8,"Y","""M""","""55""","""English""",737,"2vs1","control_double"
"ARI4DPDWL5SZY",2,8,"Y","""M""","""35""","""English""",597,"2vs1","control_double"
"A6IFXOBCV436G",1,8,"Y","""M""","""35""","""english""",1094,"2vs1","control_double"
"A2FD57QQWT1J2N",2,8,"Y","""M""","""35""","""english""",546,"2vs1","control_double"
"A1VSHM4NLZ705D",1,8,"Y","""M""","""35""","""English""",1169,"2vs1","control_double"
"A38R7SIVV118KT",2,8,"Y","""M""","""65""","""english""",1281,"2vs1","control_double"
"A1QVNF19XSRSD7",1,8,"Y","""M""","""35""","""English""",975,"2vs1","control_double"
"A2T9WRHFRIVAFY",2,8,"Y","""F""","""35""","""English""",1058,"2vs1","control_double"
"A1H11P4QSM08Y1",2,8,"Y","""M""","""35""","""english""",1391,"2vs1","control_double"
"A3MQS8KPUMZB9W",1,8,"Y","""F""","""45""","""English""",934,"2vs1","control_double"
"A1A2X0T1XE8K89",1,8,"Y","""M""","""25""","""english""",1080,"2vs1","control_double"
"A3P74FP62XNVYI",1,8,"Y","""M""","""65""","""English""",1050,"2vs1","control_double"
"A302M81U0HM7RJ",1,8,"Y","""M""","""35""","""english""",890,"2vs1","control_double"
"A27BKFN6UB1LDP",2,8,"Y","""F""","""35""","""English""",1000,"2vs1","control_double"
"A2G333PKCQQIA0",2,8,"Y","""F""","""35""","""english""",928,"2vs1","control_double"
"ALIAR9NKPM4YU",2,8,"Y","""F""","""66""","""English""",1268,"2vs1","control_double"
"A7XL1V3G7C2VV",2,8,"Y","""M""","""25""","""English""",907,"2vs1","control_double"
"A2UIGDOLX5RV95",1,8,"Y","""F""","""25""","""English""",1338,"2vs1","control_double"
"AYCHPTQRYDT7G",1,8,"Y","""F""","""45""","""English""",913,"2vs1","control_double"
"A1H72BVZEDUFZ7",1,8,"Y","""F""","""25""","""English""",1546,"2vs1","control_double"
"A3K7UC7LUKV0ZV",1,8,"Y","""M""","""35""","""English""",869,"2vs1","control_double"
"A1BDZFVHI4LH44",2,8,"Y","""M""","""25""","""English""",598,"2vs1","control_double"
"A207IHY6GERCFO",2,8,"Y","""M""","""35""","""English""",738,"2vs1","control_double"
"A3RIBFIB7C8D20",1,8,"Y","""F""","""25""","""english""",1322,"2vs1","control_double"
"A27O2IILV3S5YS",2,8,"Y","""F""","""35""","""English""",485,"2vs1","control_double"
"A3HNEYFOIJWPH1",2,8,"Y","""M""","""35""","""English""",1236,"2vs1","control_double"
"AELOYBHVZFDW9",2,8,"Y","""M""","""55""","""english""",937,"2vs1","control_double"
"A2UF2FRGVW4T89",1,8,"Y","""M""","""45""","""English""",1343,"2vs1","control_double"
"A1XOXGWBAN6HEJ",1,8,"Y","""M""","""35""","""english""",994,"2vs1","control_double"
"A7RAVFS10BUZ1",2,8,"Y","""M""","""55""","""English""",1105,"2vs1","control_double"
"A2179VLITZ8QHP",2,9,"Y","""M""","""35""","""English""",1009,"3vs1","control_double"
"A1F63RK1PMJS5Y",1,9,"Y","""M""","""35""","""English""",1233,"3vs1","control_double"
"A2OYTHYZI938A7",1,9,"Y","""F""","""35""","""English""",1137,"3vs1","control_double"
"A2ZH5LDUY5UFD4",1,9,"Y","""M""","""45""","""English""",1017,"3vs1","control_double"
"A2RXJXDJ5IWHCF",2,9,"Y","""F""","""35""","""English""",1131,"3vs1","control_double"
"A1Y8MOE9J7CMPQ",1,9,"Y","""M""","""45""","""English""",872,"3vs1","control_double"
"A3LZG0E2BOVFI0",2,9,"Y","""F""","""55""","""English""",1376,"3vs1","control_double"
"A10K8ZSAU26T49",2,9,"Y","""F""","""55""","""English""",2395,"3vs1","control_double"
"AIUKV0KVALMY6",1,9,"Y","""F""","""35""","""english""",1547,"3vs1","control_double"
"A3MBIX6DHJS68K",2,9,"Y","""F""","""35""","""English""",1174,"3vs1","control_double"
"A3CD3C99T8S6ON",2,9,"Y","""M""","""25""","""English""",922,"3vs1","control_double"
"A3SW1BXR31CZY0",1,9,"Y","""M""","""35""","""English""",905,"3vs1","control_double"
"AK467M5VTG7N4",1,9,"Y","""M""","""25""","""English""",1990,"3vs1","control_double"
"A24MK3QPZ1V1L8",1,9,"Y","""M""","""35""","""english""",961,"3vs1","control_double"
"ADKKDK6P4MS1Z",2,9,"Y","""M""","""35""","""english""",1306,"3vs1","control_double"
"A3H369LHNNJ1XR",1,9,"Y","""M""","""25""","""English""",968,"3vs1","control_double"
"AKLG79EPGKTDP",1,9,"Y","""F""","""25""","""English""",507,"3vs1","control_double"
"A1GSIR59HGF3SZ",1,9,"Y","""F""","""35""","""English""",951,"3vs1","control_double"
"A1HBIE5LRTQK1L",1,9,"Y","""M""","""55""","""English""",909,"3vs1","control_double"
"ARI4DPDWL5SZY",2,9,"Y","""M""","""35""","""English""",654,"3vs1","control_double"
"A6IFXOBCV436G",1,9,"Y","""M""","""35""","""english""",658,"3vs1","control_double"
"A2FD57QQWT1J2N",2,9,"Y","""M""","""35""","""english""",971,"3vs1","control_double"
"A1VSHM4NLZ705D",1,9,"Y","""M""","""35""","""English""",1165,"3vs1","control_double"
"A38R7SIVV118KT",2,9,"Y","""M""","""65""","""english""",1514,"3vs1","control_double"
"A1QVNF19XSRSD7",1,9,"Y","""M""","""35""","""English""",999,"3vs1","control_double"
"A2T9WRHFRIVAFY",2,9,"Y","""F""","""35""","""English""",983,"3vs1","control_double"
"A1H11P4QSM08Y1",2,9,"Y","""M""","""35""","""english""",1154,"3vs1","control_double"
"A3MQS8KPUMZB9W",1,9,"Y","""F""","""45""","""English""",1406,"3vs1","control_double"
"A1A2X0T1XE8K89",1,9,"Y","""M""","""25""","""english""",980,"3vs1","control_double"
"A3P74FP62XNVYI",1,9,"Y","""M""","""65""","""English""",1313,"3vs1","control_double"
"A302M81U0HM7RJ",1,9,"Y","""M""","""35""","""english""",728,"3vs1","control_double"
"A27BKFN6UB1LDP",2,9,"Y","""F""","""35""","""English""",1560,"3vs1","control_double"
"A2G333PKCQQIA0",2,9,"Y","""F""","""35""","""english""",1420,"3vs1","control_double"
"ALIAR9NKPM4YU",2,9,"Y","""F""","""66""","""English""",1068,"3vs1","control_double"
"A7XL1V3G7C2VV",2,9,"Y","""M""","""25""","""English""",980,"3vs1","control_double"
"A2UIGDOLX5RV95",1,9,"Y","""F""","""25""","""English""",983,"3vs1","control_double"
"AYCHPTQRYDT7G",1,9,"Y","""F""","""45""","""English""",998,"3vs1","control_double"
"A1H72BVZEDUFZ7",1,9,"Y","""F""","""25""","""English""",1570,"3vs1","control_double"
"A3K7UC7LUKV0ZV",1,9,"Y","""M""","""35""","""English""",856,"3vs1","control_double"
"A1BDZFVHI4LH44",2,9,"Y","""M""","""25""","""English""",520,"3vs1","control_double"
"A207IHY6GERCFO",2,9,"Y","""M""","""35""","""English""",1420,"3vs1","control_double"
"A3RIBFIB7C8D20",1,9,"Y","""F""","""25""","""english""",1381,"3vs1","control_double"
"A27O2IILV3S5YS",2,9,"N","""F""","""35""","""English""",733,"3vs1","control_double"
"A3HNEYFOIJWPH1",2,9,"Y","""M""","""35""","""English""",1137,"3vs1","control_double"
"AELOYBHVZFDW9",2,9,"Y","""M""","""55""","""english""",704,"3vs1","control_double"
"A2UF2FRGVW4T89",1,9,"Y","""M""","""45""","""English""",1316,"3vs1","control_double"
"A1XOXGWBAN6HEJ",1,9,"Y","""M""","""35""","""english""",994,"3vs1","control_double"
"A7RAVFS10BUZ1",2,9,"Y","""M""","""55""","""English""",1186,"3vs1","control_double"
"A2179VLITZ8QHP",2,10,"Y","""M""","""35""","""English""",1619,"1vs1","control_single"
"A1F63RK1PMJS5Y",1,10,"Y","""M""","""35""","""English""",794,"1vs1","control_single"
"A2OYTHYZI938A7",1,10,"Y","""F""","""35""","""English""",576,"1vs1","control_single"
"A2ZH5LDUY5UFD4",1,10,"Y","""M""","""45""","""English""",700,"1vs1","control_single"
"A2RXJXDJ5IWHCF",2,10,"Y","""F""","""35""","""English""",524,"1vs1","control_single"
"A1Y8MOE9J7CMPQ",1,10,"Y","""M""","""45""","""English""",828,"1vs1","control_single"
"A3LZG0E2BOVFI0",2,10,"Y","""F""","""55""","""English""",1302,"1vs1","control_single"
"A10K8ZSAU26T49",2,10,"Y","""F""","""55""","""English""",1970,"1vs1","control_single"
"AIUKV0KVALMY6",1,10,"Y","""F""","""35""","""english""",1286,"1vs1","control_single"
"A3MBIX6DHJS68K",2,10,"Y","""F""","""35""","""English""",711,"1vs1","control_single"
"A3CD3C99T8S6ON",2,10,"Y","""M""","""25""","""English""",769,"1vs1","control_single"
"A3SW1BXR31CZY0",1,10,"Y","""M""","""35""","""English""",475,"1vs1","control_single"
"AK467M5VTG7N4",1,10,"Y","""M""","""25""","""English""",882,"1vs1","control_single"
"A24MK3QPZ1V1L8",1,10,"Y","""M""","""35""","""english""",1409,"1vs1","control_single"
"ADKKDK6P4MS1Z",2,10,"Y","""M""","""35""","""english""",818,"1vs1","control_single"
"A3H369LHNNJ1XR",1,10,"Y","""M""","""25""","""English""",713,"1vs1","control_single"
"AKLG79EPGKTDP",1,10,"Y","""F""","""25""","""English""",547,"1vs1","control_single"
"A1GSIR59HGF3SZ",1,10,"Y","""F""","""35""","""English""",958,"1vs1","control_single"
"A1HBIE5LRTQK1L",1,10,"Y","""M""","""55""","""English""",615,"1vs1","control_single"
"ARI4DPDWL5SZY",2,10,"Y","""M""","""35""","""English""",563,"1vs1","control_single"
"A6IFXOBCV436G",1,10,"Y","""M""","""35""","""english""",1025,"1vs1","control_single"
"A2FD57QQWT1J2N",2,10,"Y","""M""","""35""","""english""",698,"1vs1","control_single"
"A1VSHM4NLZ705D",1,10,"Y","""M""","""35""","""English""",937,"1vs1","control_single"
"A38R7SIVV118KT",2,10,"Y","""M""","""65""","""english""",713,"1vs1","control_single"
"A1QVNF19XSRSD7",1,10,"Y","""M""","""35""","""English""",1135,"1vs1","control_single"
"A2T9WRHFRIVAFY",2,10,"Y","""F""","""35""","""English""",1027,"1vs1","control_single"
"A1H11P4QSM08Y1",2,10,"Y","""M""","""35""","""english""",1016,"1vs1","control_single"
"A3MQS8KPUMZB9W",1,10,"Y","""F""","""45""","""English""",1060,"1vs1","control_single"
"A1A2X0T1XE8K89",1,10,"Y","""M""","""25""","""english""",650,"1vs1","control_single"
"A3P74FP62XNVYI",1,10,"Y","""M""","""65""","""English""",980,"1vs1","control_single"
"A302M81U0HM7RJ",1,10,"Y","""M""","""35""","""english""",793,"1vs1","control_single"
"A27BKFN6UB1LDP",2,10,"Y","""F""","""35""","""English""",869,"1vs1","control_single"
"A2G333PKCQQIA0",2,10,"Y","""F""","""35""","""english""",1921,"1vs1","control_single"
"ALIAR9NKPM4YU",2,10,"Y","""F""","""66""","""English""",1016,"1vs1","control_single"
"A7XL1V3G7C2VV",2,10,"Y","""M""","""25""","""English""",842,"1vs1","control_single"
"A2UIGDOLX5RV95",1,10,"Y","""F""","""25""","""English""",580,"1vs1","control_single"
"AYCHPTQRYDT7G",1,10,"Y","""F""","""45""","""English""",782,"1vs1","control_single"
"A1H72BVZEDUFZ7",1,10,"Y","""F""","""25""","""English""",1660,"1vs1","control_single"
"A3K7UC7LUKV0ZV",1,10,"Y","""M""","""35""","""English""",811,"1vs1","control_single"
"A1BDZFVHI4LH44",2,10,"Y","""M""","""25""","""English""",643,"1vs1","control_single"
"A207IHY6GERCFO",2,10,"Y","""M""","""35""","""English""",586,"1vs1","control_single"
"A3RIBFIB7C8D20",1,10,"Y","""F""","""25""","""english""",1349,"1vs1","control_single"
"A27O2IILV3S5YS",2,10,"Y","""F""","""35""","""English""",815,"1vs1","control_single"
"A3HNEYFOIJWPH1",2,10,"Y","""M""","""35""","""English""",1149,"1vs1","control_single"
"AELOYBHVZFDW9",2,10,"N","""M""","""55""","""english""",647,"1vs1","control_single"
"A2UF2FRGVW4T89",1,10,"Y","""M""","""45""","""English""",1721,"1vs1","control_single"
"A1XOXGWBAN6HEJ",1,10,"Y","""M""","""35""","""english""",645,"1vs1","control_single"
"A7RAVFS10BUZ1",2,10,"Y","""M""","""55""","""English""",1718,"1vs1","control_single"
"A2179VLITZ8QHP",2,11,"Y","""M""","""35""","""English""",1243,"1vs1","control_single"
"A1F63RK1PMJS5Y",1,11,"Y","""M""","""35""","""English""",802,"2vs2","control_single"
"A2OYTHYZI938A7",1,11,"Y","""F""","""35""","""English""",697,"2vs2","control_single"
"A2ZH5LDUY5UFD4",1,11,"Y","""M""","""45""","""English""",709,"2vs2","control_single"
"A2RXJXDJ5IWHCF",2,11,"Y","""F""","""35""","""English""",661,"1vs1","control_single"
"A1Y8MOE9J7CMPQ",1,11,"Y","""M""","""45""","""English""",982,"2vs2","control_single"
"A3LZG0E2BOVFI0",2,11,"Y","""F""","""55""","""English""",843,"1vs1","control_single"
"A10K8ZSAU26T49",2,11,"Y","""F""","""55""","""English""",1502,"1vs1","control_single"
"AIUKV0KVALMY6",1,11,"Y","""F""","""35""","""english""",1051,"2vs2","control_single"
"A3MBIX6DHJS68K",2,11,"Y","""F""","""35""","""English""",595,"1vs1","control_single"
"A3CD3C99T8S6ON",2,11,"Y","""M""","""25""","""English""",617,"1vs1","control_single"
"A3SW1BXR31CZY0",1,11,"Y","""M""","""35""","""English""",642,"2vs2","control_single"
"AK467M5VTG7N4",1,11,"Y","""M""","""25""","""English""",1026,"2vs2","control_single"
"A24MK3QPZ1V1L8",1,11,"Y","""M""","""35""","""english""",753,"2vs2","control_single"
"ADKKDK6P4MS1Z",2,11,"Y","""M""","""35""","""english""",907,"1vs1","control_single"
"A3H369LHNNJ1XR",1,11,"Y","""M""","""25""","""English""",1024,"2vs2","control_single"
"AKLG79EPGKTDP",1,11,"Y","""F""","""25""","""English""",642,"2vs2","control_single"
"A1GSIR59HGF3SZ",1,11,"Y","""F""","""35""","""English""",921,"2vs2","control_single"
"A1HBIE5LRTQK1L",1,11,"Y","""M""","""55""","""English""",1174,"2vs2","control_single"
"ARI4DPDWL5SZY",2,11,"Y","""M""","""35""","""English""",722,"1vs1","control_single"
"A6IFXOBCV436G",1,11,"Y","""M""","""35""","""english""",589,"2vs2","control_single"
"A2FD57QQWT1J2N",2,11,"Y","""M""","""35""","""english""",559,"1vs1","control_single"
"A1VSHM4NLZ705D",1,11,"Y","""M""","""35""","""English""",1201,"2vs2","control_single"
"A38R7SIVV118KT",2,11,"Y","""M""","""65""","""english""",896,"1vs1","control_single"
"A1QVNF19XSRSD7",1,11,"Y","""M""","""35""","""English""",1136,"2vs2","control_single"
"A2T9WRHFRIVAFY",2,11,"Y","""F""","""35""","""English""",881,"1vs1","control_single"
"A1H11P4QSM08Y1",2,11,"Y","""M""","""35""","""english""",763,"1vs1","control_single"
"A3MQS8KPUMZB9W",1,11,"Y","""F""","""45""","""English""",990,"2vs2","control_single"
"A1A2X0T1XE8K89",1,11,"Y","""M""","""25""","""english""",609,"2vs2","control_single"
"A3P74FP62XNVYI",1,11,"Y","""M""","""65""","""English""",1041,"2vs2","control_single"
"A302M81U0HM7RJ",1,11,"Y","""M""","""35""","""english""",889,"2vs2","control_single"
"A27BKFN6UB1LDP",2,11,"Y","""F""","""35""","""English""",1041,"1vs1","control_single"
"A2G333PKCQQIA0",2,11,"Y","""F""","""35""","""english""",1024,"1vs1","control_single"
"ALIAR9NKPM4YU",2,11,"Y","""F""","""66""","""English""",1547,"1vs1","control_single"
"A7XL1V3G7C2VV",2,11,"Y","""M""","""25""","""English""",1007,"1vs1","control_single"
"A2UIGDOLX5RV95",1,11,"Y","""F""","""25""","""English""",586,"2vs2","control_single"
"AYCHPTQRYDT7G",1,11,"Y","""F""","""45""","""English""",1095,"2vs2","control_single"
"A1H72BVZEDUFZ7",1,11,"Y","""F""","""25""","""English""",2100,"2vs2","control_single"
"A3K7UC7LUKV0ZV",1,11,"Y","""M""","""35""","""English""",926,"2vs2","control_single"
"A1BDZFVHI4LH44",2,11,"Y","""M""","""25""","""English""",539,"1vs1","control_single"
"A207IHY6GERCFO",2,11,"Y","""M""","""35""","""English""",960,"1vs1","control_single"
"A3RIBFIB7C8D20",1,11,"Y","""F""","""25""","""english""",1298,"2vs2","control_single"
"A27O2IILV3S5YS",2,11,"Y","""F""","""35""","""English""",660,"1vs1","control_single"
"A3HNEYFOIJWPH1",2,11,"Y","""M""","""35""","""English""",1160,"1vs1","control_single"
"AELOYBHVZFDW9",2,11,"Y","""M""","""55""","""english""",624,"1vs1","control_single"
"A2UF2FRGVW4T89",1,11,"Y","""M""","""45""","""English""",792,"2vs2","control_single"
"A1XOXGWBAN6HEJ",1,11,"Y","""M""","""35""","""english""",928,"2vs2","control_single"
"A7RAVFS10BUZ1",2,11,"Y","""M""","""55""","""English""",1058,"1vs1","control_single"
"A2179VLITZ8QHP",2,12,"Y","""M""","""35""","""English""",1829,"3vs1","inference"
"A1F63RK1PMJS5Y",1,12,"Y","""M""","""35""","""English""",1632,"2vs1","inference"
"A2OYTHYZI938A7",1,12,"N","""F""","""35""","""English""",646,"2vs1","inference"
"A2ZH5LDUY5UFD4",1,12,"Y","""M""","""45""","""English""",1152,"2vs1","inference"
"A2RXJXDJ5IWHCF",2,12,"N","""F""","""35""","""English""",722,"3vs1","inference"
"A1Y8MOE9J7CMPQ",1,12,"Y","""M""","""45""","""English""",985,"2vs1","inference"
"A3LZG0E2BOVFI0",2,12,"Y","""F""","""55""","""English""",1987,"3vs1","inference"
"A10K8ZSAU26T49",2,12,"Y","""F""","""55""","""English""",1736,"3vs1","inference"
"AIUKV0KVALMY6",1,12,"N","""F""","""35""","""english""",625,"2vs1","inference"
"A3MBIX6DHJS68K",2,12,"Y","""F""","""35""","""English""",1609,"3vs1","inference"
"A3CD3C99T8S6ON",2,12,"Y","""M""","""25""","""English""",1218,"3vs1","inference"
"A3SW1BXR31CZY0",1,12,"Y","""M""","""35""","""English""",689,"2vs1","inference"
"AK467M5VTG7N4",1,12,"Y","""M""","""25""","""English""",1822,"2vs1","inference"
"A24MK3QPZ1V1L8",1,12,"Y","""M""","""35""","""english""",898,"2vs1","inference"
"ADKKDK6P4MS1Z",2,12,"Y","""M""","""35""","""english""",1677,"3vs1","inference"
"A3H369LHNNJ1XR",1,12,"Y","""M""","""25""","""English""",633,"2vs1","inference"
"AKLG79EPGKTDP",1,12,"Y","""F""","""25""","""English""",489,"2vs1","inference"
"A1GSIR59HGF3SZ",1,12,"Y","""F""","""35""","""English""",1217,"2vs1","inference"
"A1HBIE5LRTQK1L",1,12,"Y","""M""","""55""","""English""",760,"2vs1","inference"
"ARI4DPDWL5SZY",2,12,"Y","""M""","""35""","""English""",642,"3vs1","inference"
"A6IFXOBCV436G",1,12,"Y","""M""","""35""","""english""",1002,"2vs1","inference"
"A2FD57QQWT1J2N",2,12,"Y","""M""","""35""","""english""",1284,"3vs1","inference"
"A1VSHM4NLZ705D",1,12,"Y","""M""","""35""","""English""",937,"2vs1","inference"
"A38R7SIVV118KT",2,12,"Y","""M""","""65""","""english""",1697,"3vs1","inference"
"A1QVNF19XSRSD7",1,12,"Y","""M""","""35""","""English""",1168,"2vs1","inference"
"A2T9WRHFRIVAFY",2,12,"N","""F""","""35""","""English""",1650,"3vs1","inference"
"A1H11P4QSM08Y1",2,12,"Y","""M""","""35""","""english""",1095,"3vs1","inference"
"A3MQS8KPUMZB9W",1,12,"Y","""F""","""45""","""English""",1537,"2vs1","inference"
"A1A2X0T1XE8K89",1,12,"Y","""M""","""25""","""english""",690,"2vs1","inference"
"A3P74FP62XNVYI",1,12,"Y","""M""","""65""","""English""",1673,"2vs1","inference"
"A302M81U0HM7RJ",1,12,"Y","""M""","""35""","""english""",920,"2vs1","inference"
"A27BKFN6UB1LDP",2,12,"Y","""F""","""35""","""English""",1033,"3vs1","inference"
"A2G333PKCQQIA0",2,12,"Y","""F""","""35""","""english""",1381,"3vs1","inference"
"ALIAR9NKPM4YU",2,12,"Y","""F""","""66""","""English""",1310,"3vs1","inference"
"A7XL1V3G7C2VV",2,12,"Y","""M""","""25""","""English""",1946,"3vs1","inference"
"A2UIGDOLX5RV95",1,12,"Y","""F""","""25""","""English""",1019,"2vs1","inference"
"AYCHPTQRYDT7G",1,12,"Y","""F""","""45""","""English""",1313,"2vs1","inference"
"A1H72BVZEDUFZ7",1,12,"Y","""F""","""25""","""English""",2006,"2vs1","inference"
"A3K7UC7LUKV0ZV",1,12,"Y","""M""","""35""","""English""",533,"2vs1","inference"
"A1BDZFVHI4LH44",2,12,"Y","""M""","""25""","""English""",808,"3vs1","inference"
"A207IHY6GERCFO",2,12,"Y","""M""","""35""","""English""",1060,"3vs1","inference"
"A3RIBFIB7C8D20",1,12,"Y","""F""","""25""","""english""",1011,"2vs1","inference"
"A27O2IILV3S5YS",2,12,"Y","""F""","""35""","""English""",1056,"3vs1","inference"
"A3HNEYFOIJWPH1",2,12,"Y","""M""","""35""","""English""",1320,"3vs1","inference"
"AELOYBHVZFDW9",2,12,"Y","""M""","""55""","""english""",1015,"3vs1","inference"
"A2UF2FRGVW4T89",1,12,"Y","""M""","""45""","""English""",1308,"2vs1","inference"
"A1XOXGWBAN6HEJ",1,12,"Y","""M""","""35""","""english""",1399,"2vs1","inference"
"A7RAVFS10BUZ1",2,12,"Y","""M""","""55""","""English""",1991,"3vs1","inference"
"A2179VLITZ8QHP",2,13,"Y","""M""","""35""","""English""",915,"1vs1","control_single"
"A1F63RK1PMJS5Y",1,13,"Y","""M""","""35""","""English""",1147,"1vs1","control_single"
"A2OYTHYZI938A7",1,13,"Y","""F""","""35""","""English""",508,"1vs1","control_single"
"A2ZH5LDUY5UFD4",1,13,"Y","""M""","""45""","""English""",793,"1vs1","control_single"
"A2RXJXDJ5IWHCF",2,13,"Y","""F""","""35""","""English""",890,"1vs1","control_single"
"A1Y8MOE9J7CMPQ",1,13,"Y","""M""","""45""","""English""",593,"1vs1","control_single"
"A3LZG0E2BOVFI0",2,13,"Y","""F""","""55""","""English""",1142,"1vs1","control_single"
"A10K8ZSAU26T49",2,13,"Y","""F""","""55""","""English""",1533,"1vs1","control_single"
"AIUKV0KVALMY6",1,13,"Y","""F""","""35""","""english""",1111,"1vs1","control_single"
"A3MBIX6DHJS68K",2,13,"Y","""F""","""35""","""English""",725,"1vs1","control_single"
"A3CD3C99T8S6ON",2,13,"Y","""M""","""25""","""English""",1064,"1vs1","control_single"
"A3SW1BXR31CZY0",1,13,"Y","""M""","""35""","""English""",642,"1vs1","control_single"
"AK467M5VTG7N4",1,13,"Y","""M""","""25""","""English""",2112,"1vs1","control_single"
"A24MK3QPZ1V1L8",1,13,"Y","""M""","""35""","""english""",613,"1vs1","control_single"
"ADKKDK6P4MS1Z",2,13,"Y","""M""","""35""","""english""",934,"1vs1","control_single"
"A3H369LHNNJ1XR",1,13,"Y","""M""","""25""","""English""",778,"1vs1","control_single"
"AKLG79EPGKTDP",1,13,"Y","""F""","""25""","""English""",494,"1vs1","control_single"
"A1GSIR59HGF3SZ",1,13,"Y","""F""","""35""","""English""",799,"1vs1","control_single"
"A1HBIE5LRTQK1L",1,13,"Y","""M""","""55""","""English""",575,"1vs1","control_single"
"ARI4DPDWL5SZY",2,13,"Y","""M""","""35""","""English""",454,"1vs1","control_single"
"A6IFXOBCV436G",1,13,"Y","""M""","""35""","""english""",553,"1vs1","control_single"
"A2FD57QQWT1J2N",2,13,"Y","""M""","""35""","""english""",773,"1vs1","control_single"
"A1VSHM4NLZ705D",1,13,"Y","""M""","""35""","""English""",1001,"1vs1","control_single"
"A38R7SIVV118KT",2,13,"Y","""M""","""65""","""english""",866,"1vs1","control_single"
"A1QVNF19XSRSD7",1,13,"Y","""M""","""35""","""English""",807,"1vs1","control_single"
"A2T9WRHFRIVAFY",2,13,"Y","""F""","""35""","""English""",999,"1vs1","control_single"
"A1H11P4QSM08Y1",2,13,"Y","""M""","""35""","""english""",691,"1vs1","control_single"
"A3MQS8KPUMZB9W",1,13,"Y","""F""","""45""","""English""",1244,"1vs1","control_single"
"A1A2X0T1XE8K89",1,13,"Y","""M""","""25""","""english""",520,"1vs1","control_single"
"A3P74FP62XNVYI",1,13,"Y","""M""","""65""","""English""",937,"1vs1","control_single"
"A302M81U0HM7RJ",1,13,"Y","""M""","""35""","""english""",568,"1vs1","control_single"
"A27BKFN6UB1LDP",2,13,"Y","""F""","""35""","""English""",816,"1vs1","control_single"
"A2G333PKCQQIA0",2,13,"Y","""F""","""35""","""english""",900,"1vs1","control_single"
"ALIAR9NKPM4YU",2,13,"Y","""F""","""66""","""English""",1075,"1vs1","control_single"
"A7XL1V3G7C2VV",2,13,"Y","""M""","""25""","""English""",860,"1vs1","control_single"
"A2UIGDOLX5RV95",1,13,"Y","""F""","""25""","""English""",497,"1vs1","control_single"
"AYCHPTQRYDT7G",1,13,"Y","""F""","""45""","""English""",937,"1vs1","control_single"
"A1H72BVZEDUFZ7",1,13,"Y","""F""","""25""","""English""",1459,"1vs1","control_single"
"A3K7UC7LUKV0ZV",1,13,"Y","""M""","""35""","""English""",736,"1vs1","control_single"
"A1BDZFVHI4LH44",2,13,"Y","""M""","""25""","""English""",562,"1vs1","control_single"
"A207IHY6GERCFO",2,13,"Y","""M""","""35""","""English""",637,"1vs1","control_single"
"A3RIBFIB7C8D20",1,13,"Y","""F""","""25""","""english""",1085,"1vs1","control_single"
"A27O2IILV3S5YS",2,13,"Y","""F""","""35""","""English""",491,"1vs1","control_single"
"A3HNEYFOIJWPH1",2,13,"Y","""M""","""35""","""English""",666,"1vs1","control_single"
"AELOYBHVZFDW9",2,13,"Y","""M""","""55""","""english""",726,"1vs1","control_single"
"A2UF2FRGVW4T89",1,13,"Y","""M""","""45""","""English""",1291,"1vs1","control_single"
"A1XOXGWBAN6HEJ",1,13,"Y","""M""","""35""","""english""",819,"1vs1","control_single"
"A7RAVFS10BUZ1",2,13,"Y","""M""","""55""","""English""",1253,"1vs1","control_single"
"A2179VLITZ8QHP",2,14,"Y","""M""","""35""","""English""",824,"2vs1","control_double"
"A1F63RK1PMJS5Y",1,14,"Y","""M""","""35""","""English""",786,"2vs1","control_double"
"A2OYTHYZI938A7",1,14,"Y","""F""","""35""","""English""",548,"2vs1","control_double"
"A2ZH5LDUY5UFD4",1,14,"Y","""M""","""45""","""English""",614,"2vs1","control_double"
"A2RXJXDJ5IWHCF",2,14,"Y","""F""","""35""","""English""",477,"2vs1","control_double"
"A1Y8MOE9J7CMPQ",1,14,"Y","""M""","""45""","""English""",702,"2vs1","control_double"
"A3LZG0E2BOVFI0",2,14,"Y","""F""","""55""","""English""",1201,"2vs1","control_double"
"A10K8ZSAU26T49",2,14,"Y","""F""","""55""","""English""",1625,"2vs1","control_double"
"AIUKV0KVALMY6",1,14,"Y","""F""","""35""","""english""",1091,"2vs1","control_double"
"A3MBIX6DHJS68K",2,14,"Y","""F""","""35""","""English""",1753,"2vs1","control_double"
"A3CD3C99T8S6ON",2,14,"Y","""M""","""25""","""English""",896,"2vs1","control_double"
"A3SW1BXR31CZY0",1,14,"Y","""M""","""35""","""English""",835,"2vs1","control_double"
"AK467M5VTG7N4",1,14,"Y","""M""","""25""","""English""",1564,"2vs1","control_double"
"A24MK3QPZ1V1L8",1,14,"Y","""M""","""35""","""english""",1088,"2vs1","control_double"
"ADKKDK6P4MS1Z",2,14,"Y","""M""","""35""","""english""",2221,"2vs1","control_double"
"A3H369LHNNJ1XR",1,14,"Y","""M""","""25""","""English""",744,"2vs1","control_double"
"AKLG79EPGKTDP",1,14,"Y","""F""","""25""","""English""",616,"2vs1","control_double"
"A1GSIR59HGF3SZ",1,14,"Y","""F""","""35""","""English""",826,"2vs1","control_double"
"A1HBIE5LRTQK1L",1,14,"Y","""M""","""55""","""English""",614,"2vs1","control_double"
"ARI4DPDWL5SZY",2,14,"Y","""M""","""35""","""English""",776,"2vs1","control_double"
"A6IFXOBCV436G",1,14,"Y","""M""","""35""","""english""",1001,"2vs1","control_double"
"A2FD57QQWT1J2N",2,14,"Y","""M""","""35""","""english""",1147,"2vs1","control_double"
"A1VSHM4NLZ705D",1,14,"Y","""M""","""35""","""English""",784,"2vs1","control_double"
"A38R7SIVV118KT",2,14,"Y","""M""","""65""","""english""",857,"2vs1","control_double"
"A1QVNF19XSRSD7",1,14,"Y","""M""","""35""","""English""",1122,"2vs1","control_double"
"A2T9WRHFRIVAFY",2,14,"Y","""F""","""35""","""English""",891,"2vs1","control_double"
"A1H11P4QSM08Y1",2,14,"Y","""M""","""35""","""english""",757,"2vs1","control_double"
"A3MQS8KPUMZB9W",1,14,"Y","""F""","""45""","""English""",1173,"2vs1","control_double"
"A1A2X0T1XE8K89",1,14,"Y","""M""","""25""","""english""",514,"2vs1","control_double"
"A3P74FP62XNVYI",1,14,"Y","""M""","""65""","""English""",1210,"2vs1","control_double"
"A302M81U0HM7RJ",1,14,"Y","""M""","""35""","""english""",761,"2vs1","control_double"
"A27BKFN6UB1LDP",2,14,"Y","""F""","""35""","""English""",1129,"2vs1","control_double"
"A2G333PKCQQIA0",2,14,"Y","""F""","""35""","""english""",1354,"2vs1","control_double"
"ALIAR9NKPM4YU",2,14,"Y","""F""","""66""","""English""",934,"2vs1","control_double"
"A7XL1V3G7C2VV",2,14,"Y","""M""","""25""","""English""",730,"2vs1","control_double"
"A2UIGDOLX5RV95",1,14,"Y","""F""","""25""","""English""",503,"2vs1","control_double"
"AYCHPTQRYDT7G",1,14,"Y","""F""","""45""","""English""",1001,"2vs1","control_double"
"A1H72BVZEDUFZ7",1,14,"Y","""F""","""25""","""English""",1860,"2vs1","control_double"
"A3K7UC7LUKV0ZV",1,14,"Y","""M""","""35""","""English""",643,"2vs1","control_double"
"A1BDZFVHI4LH44",2,14,"Y","""M""","""25""","""English""",658,"2vs1","control_double"
"A207IHY6GERCFO",2,14,"Y","""M""","""35""","""English""",1046,"2vs1","control_double"
"A3RIBFIB7C8D20",1,14,"Y","""F""","""25""","""english""",1379,"2vs1","control_double"
"A27O2IILV3S5YS",2,14,"Y","""F""","""35""","""English""",1031,"2vs1","control_double"
"A3HNEYFOIJWPH1",2,14,"Y","""M""","""35""","""English""",1104,"2vs1","control_double"
"AELOYBHVZFDW9",2,14,"Y","""M""","""55""","""english""",624,"2vs1","control_double"
"A2UF2FRGVW4T89",1,14,"Y","""M""","""45""","""English""",1317,"2vs1","control_double"
"A1XOXGWBAN6HEJ",1,14,"Y","""M""","""35""","""english""",979,"2vs1","control_double"
"A7RAVFS10BUZ1",2,14,"Y","""M""","""55""","""English""",851,"2vs1","control_double"
"A2179VLITZ8QHP",2,15,"Y","""M""","""35""","""English""",1882,"3vs1","inference"
"A1F63RK1PMJS5Y",1,15,"Y","""M""","""35""","""English""",1154,"2vs1","inference"
"A2OYTHYZI938A7",1,15,"N","""F""","""35""","""English""",858,"2vs1","inference"
"A2ZH5LDUY5UFD4",1,15,"Y","""M""","""45""","""English""",1684,"2vs1","inference"
"A2RXJXDJ5IWHCF",2,15,"Y","""F""","""35""","""English""",565,"3vs1","inference"
"A1Y8MOE9J7CMPQ",1,15,"Y","""M""","""45""","""English""",858,"2vs1","inference"
"A3LZG0E2BOVFI0",2,15,"Y","""F""","""55""","""English""",1586,"3vs1","inference"
"A10K8ZSAU26T49",2,15,"Y","""F""","""55""","""English""",1487,"3vs1","inference"
"AIUKV0KVALMY6",1,15,"Y","""F""","""35""","""english""",1298,"2vs1","inference"
"A3MBIX6DHJS68K",2,15,"Y","""F""","""35""","""English""",1228,"3vs1","inference"
"A3CD3C99T8S6ON",2,15,"Y","""M""","""25""","""English""",1033,"3vs1","inference"
"A3SW1BXR31CZY0",1,15,"Y","""M""","""35""","""English""",553,"2vs1","inference"
"AK467M5VTG7N4",1,15,"N","""M""","""25""","""English""",3246,"2vs1","inference"
"A24MK3QPZ1V1L8",1,15,"Y","""M""","""35""","""english""",1131,"2vs1","inference"
"ADKKDK6P4MS1Z",2,15,"Y","""M""","""35""","""english""",1316,"3vs1","inference"
"A3H369LHNNJ1XR",1,15,"Y","""M""","""25""","""English""",874,"2vs1","inference"
"AKLG79EPGKTDP",1,15,"Y","""F""","""25""","""English""",642,"2vs1","inference"
"A1GSIR59HGF3SZ",1,15,"Y","""F""","""35""","""English""",1764,"2vs1","inference"
"A1HBIE5LRTQK1L",1,15,"Y","""M""","""55""","""English""",649,"2vs1","inference"
"ARI4DPDWL5SZY",2,15,"Y","""M""","""35""","""English""",535,"3vs1","inference"
"A6IFXOBCV436G",1,15,"Y","""M""","""35""","""english""",925,"2vs1","inference"
"A2FD57QQWT1J2N",2,15,"Y","""M""","""35""","""english""",1122,"3vs1","inference"
"A1VSHM4NLZ705D",1,15,"Y","""M""","""35""","""English""",1031,"2vs1","inference"
"A38R7SIVV118KT",2,15,"Y","""M""","""65""","""english""",746,"3vs1","inference"
"A1QVNF19XSRSD7",1,15,"Y","""M""","""35""","""English""",1200,"2vs1","inference"
"A2T9WRHFRIVAFY",2,15,"Y","""F""","""35""","""English""",1381,"3vs1","inference"
"A1H11P4QSM08Y1",2,15,"Y","""M""","""35""","""english""",782,"3vs1","inference"
"A3MQS8KPUMZB9W",1,15,"Y","""F""","""45""","""English""",1267,"2vs1","inference"
"A1A2X0T1XE8K89",1,15,"Y","""M""","""25""","""english""",1025,"2vs1","inference"
"A3P74FP62XNVYI",1,15,"Y","""M""","""65""","""English""",1177,"2vs1","inference"
"A302M81U0HM7RJ",1,15,"Y","""M""","""35""","""english""",969,"2vs1","inference"
"A27BKFN6UB1LDP",2,15,"Y","""F""","""35""","""English""",1129,"3vs1","inference"
"A2G333PKCQQIA0",2,15,"Y","""F""","""35""","""english""",892,"3vs1","inference"
"ALIAR9NKPM4YU",2,15,"Y","""F""","""66""","""English""",3126,"3vs1","inference"
"A7XL1V3G7C2VV",2,15,"Y","""M""","""25""","""English""",1010,"3vs1","inference"
"A2UIGDOLX5RV95",1,15,"Y","""F""","""25""","""English""",969,"2vs1","inference"
"AYCHPTQRYDT7G",1,15,"Y","""F""","""45""","""English""",1470,"2vs1","inference"
"A1H72BVZEDUFZ7",1,15,"Y","""F""","""25""","""English""",2167,"2vs1","inference"
"A3K7UC7LUKV0ZV",1,15,"Y","""M""","""35""","""English""",800,"2vs1","inference"
"A1BDZFVHI4LH44",2,15,"Y","""M""","""25""","""English""",503,"3vs1","inference"
"A207IHY6GERCFO",2,15,"Y","""M""","""35""","""English""",977,"3vs1","inference"
"A3RIBFIB7C8D20",1,15,"Y","""F""","""25""","""english""",964,"2vs1","inference"
"A27O2IILV3S5YS",2,15,"Y","""F""","""35""","""English""",692,"3vs1","inference"
"A3HNEYFOIJWPH1",2,15,"Y","""M""","""35""","""English""",802,"3vs1","inference"
"AELOYBHVZFDW9",2,15,"Y","""M""","""55""","""english""",875,"3vs1","inference"
"A2UF2FRGVW4T89",1,15,"Y","""M""","""45""","""English""",1195,"2vs1","inference"
"A1XOXGWBAN6HEJ",1,15,"Y","""M""","""35""","""english""",1043,"2vs1","inference"
"A7RAVFS10BUZ1",2,15,"Y","""M""","""55""","""English""",1118,"3vs1","inference"
"A2179VLITZ8QHP",2,16,"Y","""M""","""35""","""English""",1671,"1vs1","control_single"
"A1F63RK1PMJS5Y",1,16,"Y","""M""","""35""","""English""",1218,"2vs2","control_single"
"A2OYTHYZI938A7",1,16,"Y","""F""","""35""","""English""",886,"2vs2","control_single"
"A2ZH5LDUY5UFD4",1,16,"Y","""M""","""45""","""English""",1443,"2vs2","control_single"
"A2RXJXDJ5IWHCF",2,16,"Y","""F""","""35""","""English""",942,"1vs1","control_single"
"A1Y8MOE9J7CMPQ",1,16,"Y","""M""","""45""","""English""",992,"2vs2","control_single"
"A3LZG0E2BOVFI0",2,16,"Y","""F""","""55""","""English""",1011,"1vs1","control_single"
"A10K8ZSAU26T49",2,16,"Y","""F""","""55""","""English""",1486,"1vs1","control_single"
"AIUKV0KVALMY6",1,16,"Y","""F""","""35""","""english""",1691,"2vs2","control_single"
"A3MBIX6DHJS68K",2,16,"Y","""F""","""35""","""English""",861,"1vs1","control_single"
"A3CD3C99T8S6ON",2,16,"Y","""M""","""25""","""English""",665,"1vs1","control_single"
"A3SW1BXR31CZY0",1,16,"Y","""M""","""35""","""English""",958,"2vs2","control_single"
"AK467M5VTG7N4",1,16,"Y","""M""","""25""","""English""",1068,"2vs2","control_single"
"A24MK3QPZ1V1L8",1,16,"Y","""M""","""35""","""english""",1562,"2vs2","control_single"
"ADKKDK6P4MS1Z",2,16,"Y","""M""","""35""","""english""",834,"1vs1","control_single"
"A3H369LHNNJ1XR",1,16,"Y","""M""","""25""","""English""",752,"2vs2","control_single"
"AKLG79EPGKTDP",1,16,"Y","""F""","""25""","""English""",734,"2vs2","control_single"
"A1GSIR59HGF3SZ",1,16,"Y","""F""","""35""","""English""",1149,"2vs2","control_single"
"A1HBIE5LRTQK1L",1,16,"Y","""M""","""55""","""English""",1072,"2vs2","control_single"
"ARI4DPDWL5SZY",2,16,"Y","""M""","""35""","""English""",486,"1vs1","control_single"
"A6IFXOBCV436G",1,16,"Y","""M""","""35""","""english""",1157,"2vs2","control_single"
"A2FD57QQWT1J2N",2,16,"Y","""M""","""35""","""english""",921,"1vs1","control_single"
"A1VSHM4NLZ705D",1,16,"Y","""M""","""35""","""English""",905,"2vs2","control_single"
"A38R7SIVV118KT",2,16,"N","""M""","""65""","""english""",666,"1vs1","control_single"
"A1QVNF19XSRSD7",1,16,"Y","""M""","""35""","""English""",1376,"2vs2","control_single"
"A2T9WRHFRIVAFY",2,16,"Y","""F""","""35""","""English""",914,"1vs1","control_single"
"A1H11P4QSM08Y1",2,16,"Y","""M""","""35""","""english""",562,"1vs1","control_single"
"A3MQS8KPUMZB9W",1,16,"Y","""F""","""45""","""English""",1537,"2vs2","control_single"
"A1A2X0T1XE8K89",1,16,"Y","""M""","""25""","""english""",927,"2vs2","control_single"
"A3P74FP62XNVYI",1,16,"Y","""M""","""65""","""English""",1320,"2vs2","control_single"
"A302M81U0HM7RJ",1,16,"Y","""M""","""35""","""english""",937,"2vs2","control_single"
"A27BKFN6UB1LDP",2,16,"Y","""F""","""35""","""English""",1067,"1vs1","control_single"
"A2G333PKCQQIA0",2,16,"Y","""F""","""35""","""english""",1191,"1vs1","control_single"
"ALIAR9NKPM4YU",2,16,"Y","""F""","""66""","""English""",1275,"1vs1","control_single"
"A7XL1V3G7C2VV",2,16,"Y","""M""","""25""","""English""",1110,"1vs1","control_single"
"A2UIGDOLX5RV95",1,16,"Y","""F""","""25""","""English""",1120,"2vs2","control_single"
"AYCHPTQRYDT7G",1,16,"Y","""F""","""45""","""English""",1250,"2vs2","control_single"
"A1H72BVZEDUFZ7",1,16,"Y","""F""","""25""","""English""",1207,"2vs2","control_single"
"A3K7UC7LUKV0ZV",1,16,"Y","""M""","""35""","""English""",867,"2vs2","control_single"
"A1BDZFVHI4LH44",2,16,"Y","""M""","""25""","""English""",587,"1vs1","control_single"
"A207IHY6GERCFO",2,16,"Y","""M""","""35""","""English""",519,"1vs1","control_single"
"A3RIBFIB7C8D20",1,16,"Y","""F""","""25""","""english""",889,"2vs2","control_single"
"A27O2IILV3S5YS",2,16,"Y","""F""","""35""","""English""",453,"1vs1","control_single"
"A3HNEYFOIJWPH1",2,16,"Y","""M""","""35""","""English""",623,"1vs1","control_single"
"AELOYBHVZFDW9",2,16,"Y","""M""","""55""","""english""",565,"1vs1","control_single"
"A2UF2FRGVW4T89",1,16,"Y","""M""","""45""","""English""",1199,"2vs2","control_single"
"A1XOXGWBAN6HEJ",1,16,"Y","""M""","""35""","""english""",1048,"2vs2","control_single"
"A7RAVFS10BUZ1",2,16,"Y","""M""","""55""","""English""",1224,"1vs1","control_single"
"A2179VLITZ8QHP",2,17,"Y","""M""","""35""","""English""",1198,"3vs1","inference"
"A1F63RK1PMJS5Y",1,17,"Y","""M""","""35""","""English""",1474,"2vs1","inference"
"A2OYTHYZI938A7",1,17,"N","""F""","""35""","""English""",688,"2vs1","inference"
"A2ZH5LDUY5UFD4",1,17,"Y","""M""","""45""","""English""",837,"2vs1","inference"
"A2RXJXDJ5IWHCF",2,17,"Y","""F""","""35""","""English""",684,"3vs1","inference"
"A1Y8MOE9J7CMPQ",1,17,"Y","""M""","""45""","""English""",781,"2vs1","inference"
"A3LZG0E2BOVFI0",2,17,"Y","""F""","""55""","""English""",1208,"3vs1","inference"
"A10K8ZSAU26T49",2,17,"Y","""F""","""55""","""English""",1500,"3vs1","inference"
"AIUKV0KVALMY6",1,17,"Y","""F""","""35""","""english""",1474,"2vs1","inference"
"A3MBIX6DHJS68K",2,17,"Y","""F""","""35""","""English""",1079,"3vs1","inference"
"A3CD3C99T8S6ON",2,17,"Y","""M""","""25""","""English""",778,"3vs1","inference"
"A3SW1BXR31CZY0",1,17,"Y","""M""","""35""","""English""",661,"2vs1","inference"
"AK467M5VTG7N4",1,17,"Y","""M""","""25""","""English""",3848,"2vs1","inference"
"A24MK3QPZ1V1L8",1,17,"Y","""M""","""35""","""english""",992,"2vs1","inference"
"ADKKDK6P4MS1Z",2,17,"Y","""M""","""35""","""english""",1131,"3vs1","inference"
"A3H369LHNNJ1XR",1,17,"Y","""M""","""25""","""English""",896,"2vs1","inference"
"AKLG79EPGKTDP",1,17,"Y","""F""","""25""","""English""",556,"2vs1","inference"
"A1GSIR59HGF3SZ",1,17,"Y","""F""","""35""","""English""",905,"2vs1","inference"
"A1HBIE5LRTQK1L",1,17,"Y","""M""","""55""","""English""",912,"2vs1","inference"
"ARI4DPDWL5SZY",2,17,"Y","""M""","""35""","""English""",410,"3vs1","inference"
"A6IFXOBCV436G",1,17,"Y","""M""","""35""","""english""",1565,"2vs1","inference"
"A2FD57QQWT1J2N",2,17,"Y","""M""","""35""","""english""",622,"3vs1","inference"
"A1VSHM4NLZ705D",1,17,"Y","""M""","""35""","""English""",1480,"2vs1","inference"
"A38R7SIVV118KT",2,17,"Y","""M""","""65""","""english""",994,"3vs1","inference"
"A1QVNF19XSRSD7",1,17,"Y","""M""","""35""","""English""",1829,"2vs1","inference"
"A2T9WRHFRIVAFY",2,17,"Y","""F""","""35""","""English""",1464,"3vs1","inference"
"A1H11P4QSM08Y1",2,17,"Y","""M""","""35""","""english""",658,"3vs1","inference"
"A3MQS8KPUMZB9W",1,17,"Y","""F""","""45""","""English""",1245,"2vs1","inference"
"A1A2X0T1XE8K89",1,17,"Y","""M""","""25""","""english""",1047,"2vs1","inference"
"A3P74FP62XNVYI",1,17,"N","""M""","""65""","""English""",1218,"2vs1","inference"
"A302M81U0HM7RJ",1,17,"Y","""M""","""35""","""english""",1194,"2vs1","inference"
"A27BKFN6UB1LDP",2,17,"Y","""F""","""35""","""English""",976,"3vs1","inference"
"A2G333PKCQQIA0",2,17,"Y","""F""","""35""","""english""",781,"3vs1","inference"
"ALIAR9NKPM4YU",2,17,"Y","""F""","""66""","""English""",779,"3vs1","inference"
"A7XL1V3G7C2VV",2,17,"Y","""M""","""25""","""English""",1007,"3vs1","inference"
"A2UIGDOLX5RV95",1,17,"Y","""F""","""25""","""English""",1160,"2vs1","inference"
"AYCHPTQRYDT7G",1,17,"Y","""F""","""45""","""English""",1407,"2vs1","inference"
"A1H72BVZEDUFZ7",1,17,"Y","""F""","""25""","""English""",1475,"2vs1","inference"
"A3K7UC7LUKV0ZV",1,17,"Y","""M""","""35""","""English""",849,"2vs1","inference"
"A1BDZFVHI4LH44",2,17,"Y","""M""","""25""","""English""",583,"3vs1","inference"
"A207IHY6GERCFO",2,17,"Y","""M""","""35""","""English""",699,"3vs1","inference"
"A3RIBFIB7C8D20",1,17,"Y","""F""","""25""","""english""",1406,"2vs1","inference"
"A27O2IILV3S5YS",2,17,"Y","""F""","""35""","""English""",823,"3vs1","inference"
"A3HNEYFOIJWPH1",2,17,"Y","""M""","""35""","""English""",1240,"3vs1","inference"
"AELOYBHVZFDW9",2,17,"Y","""M""","""55""","""english""",563,"3vs1","inference"
"A2UF2FRGVW4T89",1,17,"Y","""M""","""45""","""English""",1417,"2vs1","inference"
"A1XOXGWBAN6HEJ",1,17,"Y","""M""","""35""","""english""",1384,"2vs1","inference"
"A7RAVFS10BUZ1",2,17,"Y","""M""","""55""","""English""",1610,"3vs1","inference"
"A2179VLITZ8QHP",2,18,"Y","""M""","""35""","""English""",1160,"3vs1","control_double"
"A1F63RK1PMJS5Y",1,18,"Y","""M""","""35""","""English""",1026,"2vs1","control_double"
"A2OYTHYZI938A7",1,18,"Y","""F""","""35""","""English""",878,"2vs1","control_double"
"A2ZH5LDUY5UFD4",1,18,"Y","""M""","""45""","""English""",1047,"2vs1","control_double"
"A2RXJXDJ5IWHCF",2,18,"Y","""F""","""35""","""English""",784,"3vs1","control_double"
"A1Y8MOE9J7CMPQ",1,18,"Y","""M""","""45""","""English""",857,"2vs1","control_double"
"A3LZG0E2BOVFI0",2,18,"Y","""F""","""55""","""English""",1497,"3vs1","control_double"
"A10K8ZSAU26T49",2,18,"Y","""F""","""55""","""English""",2018,"3vs1","control_double"
"AIUKV0KVALMY6",1,18,"Y","""F""","""35""","""english""",1514,"2vs1","control_double"
"A3MBIX6DHJS68K",2,18,"Y","""F""","""35""","""English""",924,"3vs1","control_double"
"A3CD3C99T8S6ON",2,18,"Y","""M""","""25""","""English""",1401,"3vs1","control_double"
"A3SW1BXR31CZY0",1,18,"N","""M""","""35""","""English""",673,"2vs1","control_double"
"AK467M5VTG7N4",1,18,"Y","""M""","""25""","""English""",1889,"2vs1","control_double"
"A24MK3QPZ1V1L8",1,18,"Y","""M""","""35""","""english""",960,"2vs1","control_double"
"ADKKDK6P4MS1Z",2,18,"Y","""M""","""35""","""english""",1328,"3vs1","control_double"
"A3H369LHNNJ1XR",1,18,"Y","""M""","""25""","""English""",953,"2vs1","control_double"
"AKLG79EPGKTDP",1,18,"Y","""F""","""25""","""English""",792,"2vs1","control_double"
"A1GSIR59HGF3SZ",1,18,"Y","""F""","""35""","""English""",1228,"2vs1","control_double"
"A1HBIE5LRTQK1L",1,18,"N","""M""","""55""","""English""",959,"2vs1","control_double"
"ARI4DPDWL5SZY",2,18,"Y","""M""","""35""","""English""",822,"3vs1","control_double"
"A6IFXOBCV436G",1,18,"Y","""M""","""35""","""english""",1374,"2vs1","control_double"
"A2FD57QQWT1J2N",2,18,"Y","""M""","""35""","""english""",1209,"3vs1","control_double"
"A1VSHM4NLZ705D",1,18,"Y","""M""","""35""","""English""",939,"2vs1","control_double"
"A38R7SIVV118KT",2,18,"Y","""M""","""65""","""english""",1074,"3vs1","control_double"
"A1QVNF19XSRSD7",1,18,"Y","""M""","""35""","""English""",1112,"2vs1","control_double"
"A2T9WRHFRIVAFY",2,18,"Y","""F""","""35""","""English""",1075,"3vs1","control_double"
"A1H11P4QSM08Y1",2,18,"Y","""M""","""35""","""english""",771,"3vs1","control_double"
"A3MQS8KPUMZB9W",1,18,"Y","""F""","""45""","""English""",1624,"2vs1","control_double"
"A1A2X0T1XE8K89",1,18,"Y","""M""","""25""","""english""",927,"2vs1","control_double"
"A3P74FP62XNVYI",1,18,"Y","""M""","""65""","""English""",953,"2vs1","control_double"
"A302M81U0HM7RJ",1,18,"Y","""M""","""35""","""english""",1162,"2vs1","control_double"
"A27BKFN6UB1LDP",2,18,"N","""F""","""35""","""English""",940,"3vs1","control_double"
"A2G333PKCQQIA0",2,18,"Y","""F""","""35""","""english""",1344,"3vs1","control_double"
"ALIAR9NKPM4YU",2,18,"Y","""F""","""66""","""English""",1306,"3vs1","control_double"
"A7XL1V3G7C2VV",2,18,"Y","""M""","""25""","""English""",960,"3vs1","control_double"
"A2UIGDOLX5RV95",1,18,"Y","""F""","""25""","""English""",1179,"2vs1","control_double"
"AYCHPTQRYDT7G",1,18,"Y","""F""","""45""","""English""",876,"2vs1","control_double"
"A1H72BVZEDUFZ7",1,18,"Y","""F""","""25""","""English""",1680,"2vs1","control_double"
"A3K7UC7LUKV0ZV",1,18,"Y","""M""","""35""","""English""",830,"2vs1","control_double"
"A1BDZFVHI4LH44",2,18,"N","""M""","""25""","""English""",643,"3vs1","control_double"
"A207IHY6GERCFO",2,18,"Y","""M""","""35""","""English""",1123,"3vs1","control_double"
"A3RIBFIB7C8D20",1,18,"Y","""F""","""25""","""english""",1000,"2vs1","control_double"
"A27O2IILV3S5YS",2,18,"Y","""F""","""35""","""English""",3534,"3vs1","control_double"
"A3HNEYFOIJWPH1",2,18,"Y","""M""","""35""","""English""",1142,"3vs1","control_double"
"AELOYBHVZFDW9",2,18,"Y","""M""","""55""","""english""",885,"3vs1","control_double"
"A2UF2FRGVW4T89",1,18,"Y","""M""","""45""","""English""",1269,"2vs1","control_double"
"A1XOXGWBAN6HEJ",1,18,"Y","""M""","""35""","""english""",804,"2vs1","control_double"
"A7RAVFS10BUZ1",2,18,"Y","""M""","""55""","""English""",984,"3vs1","control_double"
"A2179VLITZ8QHP",2,19,"Y","""M""","""35""","""English""",1993,"1vs1","control_single"
"A1F63RK1PMJS5Y",1,19,"Y","""M""","""35""","""English""",722,"2vs2","control_single"
"A2OYTHYZI938A7",1,19,"Y","""F""","""35""","""English""",786,"2vs2","control_single"
"A2ZH5LDUY5UFD4",1,19,"Y","""M""","""45""","""English""",596,"2vs2","control_single"
"A2RXJXDJ5IWHCF",2,19,"Y","""F""","""35""","""English""",518,"1vs1","control_single"
"A1Y8MOE9J7CMPQ",1,19,"Y","""M""","""45""","""English""",787,"2vs2","control_single"
"A3LZG0E2BOVFI0",2,19,"Y","""F""","""55""","""English""",1449,"1vs1","control_single"
"A10K8ZSAU26T49",2,19,"Y","""F""","""55""","""English""",1721,"1vs1","control_single"
"AIUKV0KVALMY6",1,19,"Y","""F""","""35""","""english""",1268,"2vs2","control_single"
"A3MBIX6DHJS68K",2,19,"Y","""F""","""35""","""English""",1282,"1vs1","control_single"
"A3CD3C99T8S6ON",2,19,"Y","""M""","""25""","""English""",802,"1vs1","control_single"
"A3SW1BXR31CZY0",1,19,"Y","""M""","""35""","""English""",768,"2vs2","control_single"
"AK467M5VTG7N4",1,19,"Y","""M""","""25""","""English""",1088,"2vs2","control_single"
"A24MK3QPZ1V1L8",1,19,"Y","""M""","""35""","""english""",638,"2vs2","control_single"
"ADKKDK6P4MS1Z",2,19,"Y","""M""","""35""","""english""",861,"1vs1","control_single"
"A3H369LHNNJ1XR",1,19,"Y","""M""","""25""","""English""",721,"2vs2","control_single"
"AKLG79EPGKTDP",1,19,"Y","""F""","""25""","""English""",454,"2vs2","control_single"
"A1GSIR59HGF3SZ",1,19,"Y","""F""","""35""","""English""",698,"2vs2","control_single"
"A1HBIE5LRTQK1L",1,19,"Y","""M""","""55""","""English""",805,"2vs2","control_single"
"ARI4DPDWL5SZY",2,19,"Y","""M""","""35""","""English""",488,"1vs1","control_single"
"A6IFXOBCV436G",1,19,"Y","""M""","""35""","""english""",1124,"2vs2","control_single"
"A2FD57QQWT1J2N",2,19,"Y","""M""","""35""","""english""",646,"1vs1","control_single"
"A1VSHM4NLZ705D",1,19,"Y","""M""","""35""","""English""",1303,"2vs2","control_single"
"A38R7SIVV118KT",2,19,"Y","""M""","""65""","""english""",961,"1vs1","control_single"
"A1QVNF19XSRSD7",1,19,"Y","""M""","""35""","""English""",893,"2vs2","control_single"
"A2T9WRHFRIVAFY",2,19,"Y","""F""","""35""","""English""",958,"1vs1","control_single"
"A1H11P4QSM08Y1",2,19,"Y","""M""","""35""","""english""",1047,"1vs1","control_single"
"A3MQS8KPUMZB9W",1,19,"Y","""F""","""45""","""English""",1012,"2vs2","control_single"
"A1A2X0T1XE8K89",1,19,"Y","""M""","""25""","""english""",660,"2vs2","control_single"
"A3P74FP62XNVYI",1,19,"Y","""M""","""65""","""English""",889,"2vs2","control_single"
"A302M81U0HM7RJ",1,19,"Y","""M""","""35""","""english""",632,"2vs2","control_single"
"A27BKFN6UB1LDP",2,19,"Y","""F""","""35""","""English""",1126,"1vs1","control_single"
"A2G333PKCQQIA0",2,19,"Y","""F""","""35""","""english""",1816,"1vs1","control_single"
"ALIAR9NKPM4YU",2,19,"Y","""F""","""66""","""English""",1535,"1vs1","control_single"
"A7XL1V3G7C2VV",2,19,"Y","""M""","""25""","""English""",1130,"1vs1","control_single"
"A2UIGDOLX5RV95",1,19,"Y","""F""","""25""","""English""",809,"2vs2","control_single"
"AYCHPTQRYDT7G",1,19,"Y","""F""","""45""","""English""",811,"2vs2","control_single"
"A1H72BVZEDUFZ7",1,19,"Y","""F""","""25""","""English""",1336,"2vs2","control_single"
"A3K7UC7LUKV0ZV",1,19,"Y","""M""","""35""","""English""",807,"2vs2","control_single"
"A1BDZFVHI4LH44",2,19,"Y","""M""","""25""","""English""",656,"1vs1","control_single"
"A207IHY6GERCFO",2,19,"Y","""M""","""35""","""English""",731,"1vs1","control_single"
"A3RIBFIB7C8D20",1,19,"Y","""F""","""25""","""english""",1429,"2vs2","control_single"
"A27O2IILV3S5YS",2,19,"Y","""F""","""35""","""English""",907,"1vs1","control_single"
"A3HNEYFOIJWPH1",2,19,"Y","""M""","""35""","""English""",728,"1vs1","control_single"
"AELOYBHVZFDW9",2,19,"Y","""M""","""55""","""english""",658,"1vs1","control_single"
"A2UF2FRGVW4T89",1,19,"Y","""M""","""45""","""English""",852,"2vs2","control_single"
"A1XOXGWBAN6HEJ",1,19,"Y","""M""","""35""","""english""",723,"2vs2","control_single"
"A7RAVFS10BUZ1",2,19,"Y","""M""","""55""","""English""",870,"1vs1","control_single"
"A2179VLITZ8QHP",2,20,"N","""M""","""35""","""English""",1114,"1vs1","control_single"
"A1F63RK1PMJS5Y",1,20,"Y","""M""","""35""","""English""",602,"1vs1","control_single"
"A2OYTHYZI938A7",1,20,"Y","""F""","""35""","""English""",617,"1vs1","control_single"
"A2ZH5LDUY5UFD4",1,20,"Y","""M""","""45""","""English""",584,"1vs1","control_single"
"A2RXJXDJ5IWHCF",2,20,"N","""F""","""35""","""English""",632,"1vs1","control_single"
"A1Y8MOE9J7CMPQ",1,20,"Y","""M""","""45""","""English""",639,"1vs1","control_single"
"A3LZG0E2BOVFI0",2,20,"N","""F""","""55""","""English""",1286,"1vs1","control_single"
"A10K8ZSAU26T49",2,20,"N","""F""","""55""","""English""",1769,"1vs1","control_single"
"AIUKV0KVALMY6",1,20,"Y","""F""","""35""","""english""",1549,"1vs1","control_single"
"A3MBIX6DHJS68K",2,20,"N","""F""","""35""","""English""",1820,"1vs1","control_single"
"A3CD3C99T8S6ON",2,20,"N","""M""","""25""","""English""",770,"1vs1","control_single"
"A3SW1BXR31CZY0",1,20,"Y","""M""","""35""","""English""",512,"1vs1","control_single"
"AK467M5VTG7N4",1,20,"Y","""M""","""25""","""English""",719,"1vs1","control_single"
"A24MK3QPZ1V1L8",1,20,"Y","""M""","""35""","""english""",933,"1vs1","control_single"
"ADKKDK6P4MS1Z",2,20,"N","""M""","""35""","""english""",1405,"1vs1","control_single"
"A3H369LHNNJ1XR",1,20,"Y","""M""","""25""","""English""",610,"1vs1","control_single"
"AKLG79EPGKTDP",1,20,"Y","""F""","""25""","""English""",714,"1vs1","control_single"
"A1GSIR59HGF3SZ",1,20,"Y","""F""","""35""","""English""",678,"1vs1","control_single"
"A1HBIE5LRTQK1L",1,20,"Y","""M""","""55""","""English""",493,"1vs1","control_single"
"ARI4DPDWL5SZY",2,20,"N","""M""","""35""","""English""",499,"1vs1","control_single"
"A6IFXOBCV436G",1,20,"Y","""M""","""35""","""english""",875,"1vs1","control_single"
"A2FD57QQWT1J2N",2,20,"N","""M""","""35""","""english""",532,"1vs1","control_single"
"A1VSHM4NLZ705D",1,20,"Y","""M""","""35""","""English""",689,"1vs1","control_single"
"A38R7SIVV118KT",2,20,"N","""M""","""65""","""english""",1120,"1vs1","control_single"
"A1QVNF19XSRSD7",1,20,"Y","""M""","""35""","""English""",1024,"1vs1","control_single"
"A2T9WRHFRIVAFY",2,20,"N","""F""","""35""","""English""",972,"1vs1","control_single"
"A1H11P4QSM08Y1",2,20,"N","""M""","""35""","""english""",1015,"1vs1","control_single"
"A3MQS8KPUMZB9W",1,20,"Y","""F""","""45""","""English""",729,"1vs1","control_single"
"A1A2X0T1XE8K89",1,20,"Y","""M""","""25""","""english""",577,"1vs1","control_single"
"A3P74FP62XNVYI",1,20,"Y","""M""","""65""","""English""",843,"1vs1","control_single"
"A302M81U0HM7RJ",1,20,"Y","""M""","""35""","""english""",536,"1vs1","control_single"
"A27BKFN6UB1LDP",2,20,"N","""F""","""35""","""English""",891,"1vs1","control_single"
"A2G333PKCQQIA0",2,20,"N","""F""","""35""","""english""",1032,"1vs1","control_single"
"ALIAR9NKPM4YU",2,20,"N","""F""","""66""","""English""",1443,"1vs1","control_single"
"A7XL1V3G7C2VV",2,20,"N","""M""","""25""","""English""",1020,"1vs1","control_single"
"A2UIGDOLX5RV95",1,20,"Y","""F""","""25""","""English""",627,"1vs1","control_single"
"AYCHPTQRYDT7G",1,20,"Y","""F""","""45""","""English""",736,"1vs1","control_single"
"A1H72BVZEDUFZ7",1,20,"Y","""F""","""25""","""English""",1190,"1vs1","control_single"
"A3K7UC7LUKV0ZV",1,20,"Y","""M""","""35""","""English""",923,"1vs1","control_single"
"A1BDZFVHI4LH44",2,20,"N","""M""","""25""","""English""",603,"1vs1","control_single"
"A207IHY6GERCFO",2,20,"N","""M""","""35""","""English""",733,"1vs1","control_single"
"A3RIBFIB7C8D20",1,20,"Y","""F""","""25""","""english""",1066,"1vs1","control_single"
"A27O2IILV3S5YS",2,20,"N","""F""","""35""","""English""",954,"1vs1","control_single"
"A3HNEYFOIJWPH1",2,20,"N","""M""","""35""","""English""",874,"1vs1","control_single"
"AELOYBHVZFDW9",2,20,"N","""M""","""55""","""english""",749,"1vs1","control_single"
"A2UF2FRGVW4T89",1,20,"Y","""M""","""45""","""English""",1358,"1vs1","control_single"
"A1XOXGWBAN6HEJ",1,20,"Y","""M""","""35""","""english""",634,"1vs1","control_single"
"A7RAVFS10BUZ1",2,20,"N","""M""","""55""","""English""",1122,"1vs1","control_single"
"A2179VLITZ8QHP",2,21,"N","""M""","""35""","""English""",1124,"2vs2","control_single"
"A1F63RK1PMJS5Y",1,21,"Y","""M""","""35""","""English""",1250,"1vs1","control_single"
"A2OYTHYZI938A7",1,21,"Y","""F""","""35""","""English""",768,"1vs1","control_single"
"A2ZH5LDUY5UFD4",1,21,"Y","""M""","""45""","""English""",1925,"1vs1","control_single"
"A2RXJXDJ5IWHCF",2,21,"N","""F""","""35""","""English""",983,"2vs2","control_single"
"A1Y8MOE9J7CMPQ",1,21,"Y","""M""","""45""","""English""",623,"1vs1","control_single"
"A3LZG0E2BOVFI0",2,21,"N","""F""","""55""","""English""",1634,"2vs2","control_single"
"A10K8ZSAU26T49",2,21,"N","""F""","""55""","""English""",1547,"2vs2","control_single"
"AIUKV0KVALMY6",1,21,"Y","""F""","""35""","""english""",942,"1vs1","control_single"
"A3MBIX6DHJS68K",2,21,"N","""F""","""35""","""English""",1097,"2vs2","control_single"
"A3CD3C99T8S6ON",2,21,"N","""M""","""25""","""English""",1153,"2vs2","control_single"
"A3SW1BXR31CZY0",1,21,"Y","""M""","""35""","""English""",481,"1vs1","control_single"
"AK467M5VTG7N4",1,21,"Y","""M""","""25""","""English""",2179,"1vs1","control_single"
"A24MK3QPZ1V1L8",1,21,"Y","""M""","""35""","""english""",813,"1vs1","control_single"
"ADKKDK6P4MS1Z",2,21,"N","""M""","""35""","""english""",975,"2vs2","control_single"
"A3H369LHNNJ1XR",1,21,"Y","""M""","""25""","""English""",609,"1vs1","control_single"
"AKLG79EPGKTDP",1,21,"Y","""F""","""25""","""English""",472,"1vs1","control_single"
"A1GSIR59HGF3SZ",1,21,"Y","""F""","""35""","""English""",1347,"1vs1","control_single"
"A1HBIE5LRTQK1L",1,21,"Y","""M""","""55""","""English""",766,"1vs1","control_single"
"ARI4DPDWL5SZY",2,21,"N","""M""","""35""","""English""",723,"2vs2","control_single"
"A6IFXOBCV436G",1,21,"Y","""M""","""35""","""english""",657,"1vs1","control_single"
"A2FD57QQWT1J2N",2,21,"N","""M""","""35""","""english""",784,"2vs2","control_single"
"A1VSHM4NLZ705D",1,21,"Y","""M""","""35""","""English""",945,"1vs1","control_single"
"A38R7SIVV118KT",2,21,"N","""M""","""65""","""english""",1465,"2vs2","control_single"
"A1QVNF19XSRSD7",1,21,"Y","""M""","""35""","""English""",1295,"1vs1","control_single"
"A2T9WRHFRIVAFY",2,21,"N","""F""","""35""","""English""",1214,"2vs2","control_single"
"A1H11P4QSM08Y1",2,21,"N","""M""","""35""","""english""",970,"2vs2","control_single"
"A3MQS8KPUMZB9W",1,21,"Y","""F""","""45""","""English""",665,"1vs1","control_single"
"A1A2X0T1XE8K89",1,21,"Y","""M""","""25""","""english""",610,"1vs1","control_single"
"A3P74FP62XNVYI",1,21,"Y","""M""","""65""","""English""",1409,"1vs1","control_single"
"A302M81U0HM7RJ",1,21,"Y","""M""","""35""","""english""",666,"1vs1","control_single"
"A27BKFN6UB1LDP",2,21,"N","""F""","""35""","""English""",1006,"2vs2","control_single"
"A2G333PKCQQIA0",2,21,"N","""F""","""35""","""english""",1452,"2vs2","control_single"
"ALIAR9NKPM4YU",2,21,"N","""F""","""66""","""English""",1272,"2vs2","control_single"
"A7XL1V3G7C2VV",2,21,"N","""M""","""25""","""English""",1100,"2vs2","control_single"
"A2UIGDOLX5RV95",1,21,"Y","""F""","""25""","""English""",537,"1vs1","control_single"
"AYCHPTQRYDT7G",1,21,"Y","""F""","""45""","""English""",704,"1vs1","control_single"
"A1H72BVZEDUFZ7",1,21,"Y","""F""","""25""","""English""",1287,"1vs1","control_single"
"A3K7UC7LUKV0ZV",1,21,"Y","""M""","""35""","""English""",502,"1vs1","control_single"
"A1BDZFVHI4LH44",2,21,"N","""M""","""25""","""English""",736,"2vs2","control_single"
"A207IHY6GERCFO",2,21,"N","""M""","""35""","""English""",1291,"2vs2","control_single"
"A3RIBFIB7C8D20",1,21,"Y","""F""","""25""","""english""",1548,"1vs1","control_single"
"A27O2IILV3S5YS",2,21,"N","""F""","""35""","""English""",734,"2vs2","control_single"
"A3HNEYFOIJWPH1",2,21,"N","""M""","""35""","""English""",1047,"2vs2","control_single"
"AELOYBHVZFDW9",2,21,"N","""M""","""55""","""english""",598,"2vs2","control_single"
"A2UF2FRGVW4T89",1,21,"Y","""M""","""45""","""English""",1125,"1vs1","control_single"
"A1XOXGWBAN6HEJ",1,21,"Y","""M""","""35""","""english""",994,"1vs1","control_single"
"A7RAVFS10BUZ1",2,21,"N","""M""","""55""","""English""",1608,"2vs2","control_single"
"A2179VLITZ8QHP",2,22,"N","""M""","""35""","""English""",1380,"2vs2","control_single"
"A1F63RK1PMJS5Y",1,22,"Y","""M""","""35""","""English""",770,"1vs1","control_single"
"A2OYTHYZI938A7",1,22,"Y","""F""","""35""","""English""",689,"1vs1","control_single"
"A2ZH5LDUY5UFD4",1,22,"Y","""M""","""45""","""English""",1185,"1vs1","control_single"
"A2RXJXDJ5IWHCF",2,22,"N","""F""","""35""","""English""",673,"2vs2","control_single"
"A1Y8MOE9J7CMPQ",1,22,"Y","""M""","""45""","""English""",843,"1vs1","control_single"
"A3LZG0E2BOVFI0",2,22,"N","""F""","""55""","""English""",1229,"2vs2","control_single"
"A10K8ZSAU26T49",2,22,"N","""F""","""55""","""English""",2123,"2vs2","control_single"
"AIUKV0KVALMY6",1,22,"Y","""F""","""35""","""english""",1016,"1vs1","control_single"
"A3MBIX6DHJS68K",2,22,"N","""F""","""35""","""English""",956,"2vs2","control_single"
"A3CD3C99T8S6ON",2,22,"N","""M""","""25""","""English""",1065,"2vs2","control_single"
"A3SW1BXR31CZY0",1,22,"Y","""M""","""35""","""English""",520,"1vs1","control_single"
"AK467M5VTG7N4",1,22,"Y","""M""","""25""","""English""",1214,"1vs1","control_single"
"A24MK3QPZ1V1L8",1,22,"Y","""M""","""35""","""english""",971,"1vs1","control_single"
"ADKKDK6P4MS1Z",2,22,"N","""M""","""35""","""english""",1108,"2vs2","control_single"
"A3H369LHNNJ1XR",1,22,"Y","""M""","""25""","""English""",664,"1vs1","control_single"
"AKLG79EPGKTDP",1,22,"Y","""F""","""25""","""English""",473,"1vs1","control_single"
"A1GSIR59HGF3SZ",1,22,"Y","""F""","""35""","""English""",858,"1vs1","control_single"
"A1HBIE5LRTQK1L",1,22,"Y","""M""","""55""","""English""",887,"1vs1","control_single"
"ARI4DPDWL5SZY",2,22,"N","""M""","""35""","""English""",620,"2vs2","control_single"
"A6IFXOBCV436G",1,22,"Y","""M""","""35""","""english""",782,"1vs1","control_single"
"A2FD57QQWT1J2N",2,22,"N","""M""","""35""","""english""",734,"2vs2","control_single"
"A1VSHM4NLZ705D",1,22,"Y","""M""","""35""","""English""",974,"1vs1","control_single"
"A38R7SIVV118KT",2,22,"N","""M""","""65""","""english""",1017,"2vs2","control_single"
"A1QVNF19XSRSD7",1,22,"Y","""M""","""35""","""English""",904,"1vs1","control_single"
"A2T9WRHFRIVAFY",2,22,"N","""F""","""35""","""English""",1495,"2vs2","control_single"
"A1H11P4QSM08Y1",2,22,"N","""M""","""35""","""english""",782,"2vs2","control_single"
"A3MQS8KPUMZB9W",1,22,"Y","""F""","""45""","""English""",996,"1vs1","control_single"
"A1A2X0T1XE8K89",1,22,"Y","""M""","""25""","""english""",737,"1vs1","control_single"
"A3P74FP62XNVYI",1,22,"Y","""M""","""65""","""English""",729,"1vs1","control_single"
"A302M81U0HM7RJ",1,22,"Y","""M""","""35""","""english""",603,"1vs1","control_single"
"A27BKFN6UB1LDP",2,22,"N","""F""","""35""","""English""",997,"2vs2","control_single"
"A2G333PKCQQIA0",2,22,"N","""F""","""35""","""english""",1279,"2vs2","control_single"
"ALIAR9NKPM4YU",2,22,"N","""F""","""66""","""English""",986,"2vs2","control_single"
"A7XL1V3G7C2VV",2,22,"N","""M""","""25""","""English""",980,"2vs2","control_single"
"A2UIGDOLX5RV95",1,22,"Y","""F""","""25""","""English""",791,"1vs1","control_single"
"AYCHPTQRYDT7G",1,22,"Y","""F""","""45""","""English""",876,"1vs1","control_single"
"A1H72BVZEDUFZ7",1,22,"Y","""F""","""25""","""English""",2537,"1vs1","control_single"
"A3K7UC7LUKV0ZV",1,22,"Y","""M""","""35""","""English""",545,"1vs1","control_single"
"A1BDZFVHI4LH44",2,22,"N","""M""","""25""","""English""",986,"2vs2","control_single"
"A207IHY6GERCFO",2,22,"N","""M""","""35""","""English""",850,"2vs2","control_single"
"A3RIBFIB7C8D20",1,22,"Y","""F""","""25""","""english""",1080,"1vs1","control_single"
"A27O2IILV3S5YS",2,22,"N","""F""","""35""","""English""",598,"2vs2","control_single"
"A3HNEYFOIJWPH1",2,22,"N","""M""","""35""","""English""",1056,"2vs2","control_single"
"AELOYBHVZFDW9",2,22,"N","""M""","""55""","""english""",782,"2vs2","control_single"
"A2UF2FRGVW4T89",1,22,"Y","""M""","""45""","""English""",1048,"1vs1","control_single"
"A1XOXGWBAN6HEJ",1,22,"Y","""M""","""35""","""english""",647,"1vs1","control_single"
"A7RAVFS10BUZ1",2,22,"N","""M""","""55""","""English""",1485,"2vs2","control_single"
"A2179VLITZ8QHP",2,23,"N","""M""","""35""","""English""",1321,"2vs1","inference"
"A1F63RK1PMJS5Y",1,23,"Y","""M""","""35""","""English""",1233,"3vs1","inference"
"A2OYTHYZI938A7",1,23,"N","""F""","""35""","""English""",1288,"3vs1","inference"
"A2ZH5LDUY5UFD4",1,23,"Y","""M""","""45""","""English""",1524,"3vs1","inference"
"A2RXJXDJ5IWHCF",2,23,"N","""F""","""35""","""English""",1079,"2vs1","inference"
"A1Y8MOE9J7CMPQ",1,23,"Y","""M""","""45""","""English""",1266,"3vs1","inference"
"A3LZG0E2BOVFI0",2,23,"N","""F""","""55""","""English""",1570,"2vs1","inference"
"A10K8ZSAU26T49",2,23,"N","""F""","""55""","""English""",1752,"2vs1","inference"
"AIUKV0KVALMY6",1,23,"Y","""F""","""35""","""english""",2159,"3vs1","inference"
"A3MBIX6DHJS68K",2,23,"N","""F""","""35""","""English""",924,"2vs1","inference"
"A3CD3C99T8S6ON",2,23,"N","""M""","""25""","""English""",1160,"2vs1","inference"
"A3SW1BXR31CZY0",1,23,"Y","""M""","""35""","""English""",896,"3vs1","inference"
"AK467M5VTG7N4",1,23,"Y","""M""","""25""","""English""",1200,"3vs1","inference"
"A24MK3QPZ1V1L8",1,23,"Y","""M""","""35""","""english""",2187,"3vs1","inference"
"ADKKDK6P4MS1Z",2,23,"N","""M""","""35""","""english""",1257,"2vs1","inference"
"A3H369LHNNJ1XR",1,23,"Y","""M""","""25""","""English""",538,"3vs1","inference"
"AKLG79EPGKTDP",1,23,"Y","""F""","""25""","""English""",954,"3vs1","inference"
"A1GSIR59HGF3SZ",1,23,"Y","""F""","""35""","""English""",1827,"3vs1","inference"
"A1HBIE5LRTQK1L",1,23,"Y","""M""","""55""","""English""",897,"3vs1","inference"
"ARI4DPDWL5SZY",2,23,"N","""M""","""35""","""English""",892,"2vs1","inference"
"A6IFXOBCV436G",1,23,"Y","""M""","""35""","""english""",1295,"3vs1","inference"
"A2FD57QQWT1J2N",2,23,"N","""M""","""35""","""english""",1284,"2vs1","inference"
"A1VSHM4NLZ705D",1,23,"N","""M""","""35""","""English""",1618,"3vs1","inference"
"A38R7SIVV118KT",2,23,"N","""M""","""65""","""english""",1161,"2vs1","inference"
"A1QVNF19XSRSD7",1,23,"Y","""M""","""35""","""English""",1376,"3vs1","inference"
"A2T9WRHFRIVAFY",2,23,"N","""F""","""35""","""English""",1071,"2vs1","inference"
"A1H11P4QSM08Y1",2,23,"N","""M""","""35""","""english""",877,"2vs1","inference"
"A3MQS8KPUMZB9W",1,23,"Y","""F""","""45""","""English""",1185,"3vs1","inference"
"A1A2X0T1XE8K89",1,23,"Y","""M""","""25""","""english""",990,"3vs1","inference"
"A3P74FP62XNVYI",1,23,"Y","""M""","""65""","""English""",977,"3vs1","inference"
"A302M81U0HM7RJ",1,23,"Y","""M""","""35""","""english""",922,"3vs1","inference"
"A27BKFN6UB1LDP",2,23,"N","""F""","""35""","""English""",1363,"2vs1","inference"
"A2G333PKCQQIA0",2,23,"N","""F""","""35""","""english""",1885,"2vs1","inference"
"ALIAR9NKPM4YU",2,23,"N","""F""","""66""","""English""",1149,"2vs1","inference"
"A7XL1V3G7C2VV",2,23,"N","""M""","""25""","""English""",880,"2vs1","inference"
"A2UIGDOLX5RV95",1,23,"N","""F""","""25""","""English""",1126,"3vs1","inference"
"AYCHPTQRYDT7G",1,23,"Y","""F""","""45""","""English""",1157,"3vs1","inference"
"A1H72BVZEDUFZ7",1,23,"Y","""F""","""25""","""English""",1845,"3vs1","inference"
"A3K7UC7LUKV0ZV",1,23,"Y","""M""","""35""","""English""",1116,"3vs1","inference"
"A1BDZFVHI4LH44",2,23,"N","""M""","""25""","""English""",615,"2vs1","inference"
"A207IHY6GERCFO",2,23,"N","""M""","""35""","""English""",610,"2vs1","inference"
"A3RIBFIB7C8D20",1,23,"Y","""F""","""25""","""english""",3161,"3vs1","inference"
"A27O2IILV3S5YS",2,23,"N","""F""","""35""","""English""",1183,"2vs1","inference"
"A3HNEYFOIJWPH1",2,23,"N","""M""","""35""","""English""",946,"2vs1","inference"
"AELOYBHVZFDW9",2,23,"N","""M""","""55""","""english""",641,"2vs1","inference"
"A2UF2FRGVW4T89",1,23,"Y","""M""","""45""","""English""",1968,"3vs1","inference"
"A1XOXGWBAN6HEJ",1,23,"Y","""M""","""35""","""english""",1259,"3vs1","inference"
"A7RAVFS10BUZ1",2,23,"N","""M""","""55""","""English""",1266,"2vs1","inference"
"A2179VLITZ8QHP",2,24,"N","""M""","""35""","""English""",962,"2vs1","control_double"
"A1F63RK1PMJS5Y",1,24,"Y","""M""","""35""","""English""",1074,"3vs1","control_double"
"A2OYTHYZI938A7",1,24,"Y","""F""","""35""","""English""",847,"3vs1","control_double"
"A2ZH5LDUY5UFD4",1,24,"Y","""M""","""45""","""English""",636,"3vs1","control_double"
"A2RXJXDJ5IWHCF",2,24,"N","""F""","""35""","""English""",678,"2vs1","control_double"
"A1Y8MOE9J7CMPQ",1,24,"Y","""M""","""45""","""English""",787,"3vs1","control_double"
"A3LZG0E2BOVFI0",2,24,"N","""F""","""55""","""English""",1451,"2vs1","control_double"
"A10K8ZSAU26T49",2,24,"N","""F""","""55""","""English""",922,"2vs1","control_double"
"AIUKV0KVALMY6",1,24,"Y","""F""","""35""","""english""",1268,"3vs1","control_double"
"A3MBIX6DHJS68K",2,24,"N","""F""","""35""","""English""",923,"2vs1","control_double"
"A3CD3C99T8S6ON",2,24,"N","""M""","""25""","""English""",1480,"2vs1","control_double"
"A3SW1BXR31CZY0",1,24,"Y","""M""","""35""","""English""",930,"3vs1","control_double"
"AK467M5VTG7N4",1,24,"Y","""M""","""25""","""English""",1374,"3vs1","control_double"
"A24MK3QPZ1V1L8",1,24,"Y","""M""","""35""","""english""",804,"3vs1","control_double"
"ADKKDK6P4MS1Z",2,24,"N","""M""","""35""","""english""",846,"2vs1","control_double"
"A3H369LHNNJ1XR",1,24,"Y","""M""","""25""","""English""",930,"3vs1","control_double"
"AKLG79EPGKTDP",1,24,"Y","""F""","""25""","""English""",617,"3vs1","control_double"
"A1GSIR59HGF3SZ",1,24,"Y","""F""","""35""","""English""",859,"3vs1","control_double"
"A1HBIE5LRTQK1L",1,24,"Y","""M""","""55""","""English""",1005,"3vs1","control_double"
"ARI4DPDWL5SZY",2,24,"N","""M""","""35""","""English""",654,"2vs1","control_double"
"A6IFXOBCV436G",1,24,"Y","""M""","""35""","""english""",814,"3vs1","control_double"
"A2FD57QQWT1J2N",2,24,"N","""M""","""35""","""english""",995,"2vs1","control_double"
"A1VSHM4NLZ705D",1,24,"Y","""M""","""35""","""English""",1609,"3vs1","control_double"
"A38R7SIVV118KT",2,24,"N","""M""","""65""","""english""",921,"2vs1","control_double"
"A1QVNF19XSRSD7",1,24,"Y","""M""","""35""","""English""",1255,"3vs1","control_double"
"A2T9WRHFRIVAFY",2,24,"N","""F""","""35""","""English""",790,"2vs1","control_double"
"A1H11P4QSM08Y1",2,24,"N","""M""","""35""","""english""",566,"2vs1","control_double"
"A3MQS8KPUMZB9W",1,24,"Y","""F""","""45""","""English""",768,"3vs1","control_double"
"A1A2X0T1XE8K89",1,24,"Y","""M""","""25""","""english""",700,"3vs1","control_double"
"A3P74FP62XNVYI",1,24,"Y","""M""","""65""","""English""",1049,"3vs1","control_double"
"A302M81U0HM7RJ",1,24,"Y","""M""","""35""","""english""",809,"3vs1","control_double"
"A27BKFN6UB1LDP",2,24,"N","""F""","""35""","""English""",996,"2vs1","control_double"
"A2G333PKCQQIA0",2,24,"N","""F""","""35""","""english""",1188,"2vs1","control_double"
"ALIAR9NKPM4YU",2,24,"N","""F""","""66""","""English""",1001,"2vs1","control_double"
"A7XL1V3G7C2VV",2,24,"N","""M""","""25""","""English""",1073,"2vs1","control_double"
"A2UIGDOLX5RV95",1,24,"Y","""F""","""25""","""English""",840,"3vs1","control_double"
"AYCHPTQRYDT7G",1,24,"Y","""F""","""45""","""English""",891,"3vs1","control_double"
"A1H72BVZEDUFZ7",1,24,"Y","""F""","""25""","""English""",1260,"3vs1","control_double"
"A3K7UC7LUKV0ZV",1,24,"Y","""M""","""35""","""English""",847,"3vs1","control_double"
"A1BDZFVHI4LH44",2,24,"N","""M""","""25""","""English""",730,"2vs1","control_double"
"A207IHY6GERCFO",2,24,"N","""M""","""35""","""English""",718,"2vs1","control_double"
"A3RIBFIB7C8D20",1,24,"Y","""F""","""25""","""english""",1110,"3vs1","control_double"
"A27O2IILV3S5YS",2,24,"N","""F""","""35""","""English""",1043,"2vs1","control_double"
"A3HNEYFOIJWPH1",2,24,"N","""M""","""35""","""English""",817,"2vs1","control_double"
"AELOYBHVZFDW9",2,24,"N","""M""","""55""","""english""",656,"2vs1","control_double"
"A2UF2FRGVW4T89",1,24,"Y","""M""","""45""","""English""",1324,"3vs1","control_double"
"A1XOXGWBAN6HEJ",1,24,"Y","""M""","""35""","""english""",1256,"3vs1","control_double"
"A7RAVFS10BUZ1",2,24,"N","""M""","""55""","""English""",1231,"2vs1","control_double"
